Time,AccX,AccY,AccZ,GyroX,GyroY,GyroZ
1749800343.5558434,0.052490234375,-0.995849609375,0.21044921875,11.961832061068701,-19.977099236641223,75.55725190839695
1749800343.5659082,0.052490234375,-0.99951171875,0.20361328125,-0.8396946564885496,-35.45038167938932,76.01526717557252
1749800343.575912,0.0537109375,-0.997802734375,0.215576171875,-1.1145038167938932,-0.2824427480916031,-1.3206106870229009
1749800343.5859141,0.056640625,-0.996337890625,0.19580078125,-1.2671755725190839,0.19083969465648856,-1.1145038167938932
1749800343.595926,0.053466796875,-0.99560546875,0.211181640625,-1.16793893129771,-0.16030534351145037,-1.0381679389312977
1749800343.6059284,0.05810546875,-1.0009765625,0.21044921875,-1.2366412213740459,0.1297709923664122,-1.1374045801526718
1749800343.6159358,0.054443359375,-0.999267578125,0.209716796875,-1.2671755725190839,0.022900763358778626,-1.0763358778625953
1749800343.6263254,0.055908203125,-0.99951171875,0.21728515625,-1.16793893129771,0.10687022900763359,-1.0610687022900764
1749800343.6359205,0.05517578125,-1.002685546875,0.207275390625,-1.2671755725190839,0.04580152671755725,-1.2290076335877862
1749800343.6459093,0.059814453125,-0.9990234375,0.2080078125,-1.2595419847328244,0.17557251908396945,-1.1145038167938932
1749800343.655908,0.05615234375,-1.002685546875,0.201904296875,-1.1068702290076335,0.022900763358778626,-1.083969465648855
1749800343.6659071,0.05615234375,-0.999267578125,0.21435546875,-1.1603053435114503,0.03816793893129771,-1.015267175572519
1749800343.6759079,0.056640625,-0.995361328125,0.20556640625,-1.1984732824427482,0.1450381679389313,-1.0381679389312977
1749800343.6859112,0.04833984375,-0.999267578125,0.216064453125,-1.183206106870229,1.9465648854961832,-1.1755725190839694
1749800343.6959095,0.050048828125,-0.9970703125,0.2294921875,-1.3358778625954197,1.9465648854961832,-1.0381679389312977
1749800343.705907,0.05712890625,-1.0,0.205078125,-1.5648854961832062,0.16793893129770993,-1.1221374045801527
1749800343.7159104,0.05859375,-0.985107421875,0.216796875,-1.3358778625954197,0.10687022900763359,-1.0381679389312977
1749800343.7259076,0.053466796875,-0.9990234375,0.202880859375,-1.0,0.12213740458015267,-1.0763358778625953
1749800343.7359087,0.050048828125,-0.992431640625,0.22265625,-1.381679389312977,0.030534351145038167,-1.083969465648855
1749800343.745908,0.055908203125,-1.00244140625,0.207275390625,-1.099236641221374,0.09923664122137404,-1.1526717557251909
1749800343.7559195,0.059326171875,-0.99462890625,0.212646484375,-1.3587786259541985,0.12213740458015267,-1.1221374045801527
1749800343.7659066,0.05126953125,-0.995849609375,0.21435546875,-1.0534351145038168,0.061068702290076333,-0.9923664122137404
1749800343.7759082,0.048828125,-1.011474609375,0.20947265625,-1.3740458015267176,0.16030534351145037,-0.9847328244274809
1749800343.7859077,0.0537109375,-0.994140625,0.2158203125,-1.2442748091603053,0.06870229007633588,-0.9618320610687023
1749800343.7959065,0.052001953125,-0.986328125,0.21435546875,-1.4122137404580153,0.16793893129770993,-1.0687022900763359
1749800343.8059065,0.050537109375,-1.0009765625,0.208251953125,-1.3358778625954197,0.19083969465648856,-1.0381679389312977
1749800343.8159077,0.04833984375,-0.998046875,0.208251953125,-1.0687022900763359,0.0916030534351145,-1.2595419847328244
1749800343.8259065,0.05517578125,-1.00341796875,0.218994140625,-1.1908396946564885,1.9465648854961832,-1.0763358778625953
1749800343.8359072,0.057861328125,-1.00732421875,0.214111328125,-1.213740458015267,-0.16030534351145037,-1.1908396946564885
1749800343.8459089,0.046875,-1.00244140625,0.216796875,-1.3282442748091603,0.06870229007633588,-1.0916030534351144
1749800343.8559175,0.04833984375,-0.985107421875,0.2041015625,-1.2061068702290076,0.030534351145038167,-1.1374045801526718
1749800343.8659048,0.05908203125,-1.000732421875,0.21142578125,-1.2213740458015268,1.9389312977099236,-1.0687022900763359
1749800343.875906,0.056640625,-1.010009765625,0.210693359375,-1.0916030534351144,0.09923664122137404,-1.1603053435114503
1749800343.8859036,0.053955078125,-0.996826171875,0.20361328125,-1.297709923664122,1.9465648854961832,-1.1221374045801527
1749800343.895906,0.052490234375,-1.00390625,0.2109375,-1.0610687022900764,0.1984732824427481,-1.0458015267175573
1749800343.9059048,0.052001953125,-0.99853515625,0.21240234375,-1.183206106870229,0.08396946564885496,-1.1068702290076335
1749800343.915923,0.058837890625,-1.00146484375,0.214599609375,-1.3969465648854962,0.1297709923664122,-0.9847328244274809
1749800343.9259045,0.055419921875,-1.001708984375,0.212890625,-1.3740458015267176,-0.12213740458015267,-1.1450381679389312
1749800343.9359066,0.05517578125,-1.0029296875,0.20849609375,-1.015267175572519,0.17557251908396945,-1.0305343511450382
1749800343.945908,0.056640625,-1.01513671875,0.20947265625,-1.1068702290076335,0.1984732824427481,-1.0076335877862594
1749800343.9559064,0.059326171875,-0.994384765625,0.20849609375,-1.3358778625954197,0.015267175572519083,-0.9694656488549618
1749800343.965904,0.052490234375,-0.996826171875,0.214599609375,-1.0687022900763359,0.030534351145038167,-1.0687022900763359
1749800343.975907,0.054931640625,-0.997802734375,0.21826171875,-1.2748091603053435,0.05343511450381679,-1.0534351145038168
1749800343.985905,0.048828125,-0.997314453125,0.2080078125,-1.1221374045801527,0.1450381679389313,-1.0076335877862594
1749800343.9959064,0.058349609375,-1.000244140625,0.214599609375,-1.183206106870229,-0.07633587786259542,-1.0763358778625953
1749800344.0059042,0.053955078125,-0.994140625,0.21435546875,-1.1450381679389312,-0.007633587786259542,-0.8778625954198473
1749800344.0159054,0.057861328125,-1.002197265625,0.218505859375,-1.1526717557251909,0.13740458015267176,-0.9083969465648855
1749800344.0259044,0.054443359375,-1.001953125,0.212646484375,-1.16793893129771,-0.03816793893129771,-1.0
1749800344.0359075,0.061279296875,-1.003173828125,0.208251953125,-1.1755725190839694,0.13740458015267176,-1.0229007633587786
1749800344.045906,0.0556640625,-1.01513671875,0.216796875,-1.465648854961832,1.9312977099236641,-1.1374045801526718
1749800344.0559068,0.053466796875,-0.99853515625,0.203125,-1.2061068702290076,0.07633587786259542,-1.0687022900763359
1749800344.0659027,0.050048828125,-1.0009765625,0.2158203125,-1.3206106870229009,0.022900763358778626,-1.0381679389312977
1749800344.0759056,0.059814453125,-0.9970703125,0.207275390625,-1.2900763358778626,0.22137404580152673,-1.0
1749800344.0859032,0.04052734375,-0.99609375,0.21044921875,-1.1221374045801527,0.022900763358778626,-1.0763358778625953
1749800344.0959063,0.0595703125,-1.004638671875,0.20703125,-1.1755725190839694,0.07633587786259542,-1.16793893129771
1749800344.1059055,0.059814453125,-0.99609375,0.2080078125,-1.3511450381679388,0.03816793893129771,-1.1068702290076335
1749800344.1159058,0.0517578125,-0.985107421875,0.2099609375,-1.1068702290076335,0.183206106870229,-1.0305343511450382
1749800344.125904,0.050048828125,-1.00390625,0.213134765625,-1.0763358778625953,0.15267175572519084,-1.099236641221374
1749800344.1359062,0.050537109375,-0.985107421875,0.2158203125,-1.3435114503816794,0.04580152671755725,-1.083969465648855
1749800344.1459038,0.0537109375,-0.997802734375,0.21826171875,-1.4580152671755726,-0.07633587786259542,-0.916030534351145
1749800344.1559052,0.0517578125,-1.00244140625,0.213134765625,-1.282442748091603,-0.03816793893129771,-1.0381679389312977
1749800344.1659045,0.05615234375,-1.000732421875,0.2138671875,-1.2595419847328244,0.10687022900763359,-0.9083969465648855
1749800344.1759055,0.059326171875,-0.99853515625,0.2109375,-1.297709923664122,-0.08396946564885496,-0.9923664122137404
1749800344.1859055,0.0537109375,-1.000732421875,0.218017578125,-0.9694656488549618,0.06870229007633588,-1.0763358778625953
1749800344.1959019,0.056396484375,-1.01318359375,0.2158203125,-1.1603053435114503,0.15267175572519084,-0.9007633587786259
1749800344.2059045,0.052001953125,-1.00146484375,0.20361328125,-1.1374045801526718,0.12213740458015267,-1.1603053435114503
1749800344.2159054,0.05517578125,-0.988037109375,0.215087890625,-1.297709923664122,1.9465648854961832,-1.1068702290076335
1749800344.225904,0.050048828125,-0.99267578125,0.21435546875,-1.1526717557251909,0.06870229007633588,-0.9923664122137404
1749800344.2359064,0.054443359375,-1.0048828125,0.210693359375,-1.3358778625954197,0.15267175572519084,-1.0687022900763359
1749800344.2459059,0.05029296875,-1.0048828125,0.224609375,-1.2595419847328244,0.030534351145038167,-0.7862595419847328
1749800344.2559056,0.05322265625,-1.005859375,0.211181640625,-1.1221374045801527,0.07633587786259542,-0.9923664122137404
1749800344.265904,0.0576171875,-0.99755859375,0.2138671875,-1.3206106870229009,0.06870229007633588,-1.0381679389312977
1749800344.2759056,0.05322265625,-1.010009765625,0.203125,-1.16793893129771,0.17557251908396945,-1.2442748091603053
1749800344.285904,0.0556640625,-1.01416015625,0.216796875,-1.1145038167938932,0.13740458015267176,-1.0458015267175573
1749800344.2959065,0.053466796875,-1.000244140625,0.21484375,-1.450381679389313,-0.05343511450381679,-1.1068702290076335
1749800344.305907,0.05419921875,-0.9970703125,0.2255859375,-1.251908396946565,0.1450381679389313,-1.0687022900763359
1749800344.315905,0.059814453125,-0.997802734375,0.216796875,-1.2748091603053435,-0.0916030534351145,-0.9618320610687023
1749800344.325904,0.052490234375,-0.99609375,0.21337890625,-1.2442748091603053,0.21374045801526717,-1.0305343511450382
1749800344.3358736,0.05224609375,-0.996337890625,0.2099609375,-1.099236641221374,-1.9312977099236641,-1.1297709923664123
1749800344.345903,0.0556640625,-0.999755859375,0.203857421875,-1.1374045801526718,-0.06870229007633588,-0.8931297709923665
1749800344.3559058,0.056640625,-0.99951171875,0.211181640625,-1.3053435114503817,1.8854961832061068,-1.1603053435114503
1749800344.3659046,0.05859375,-0.99755859375,0.2080078125,-1.1603053435114503,0.03816793893129771,-1.0534351145038168
1749800344.3759055,0.05517578125,-0.995849609375,0.216796875,-1.2900763358778626,0.09923664122137404,-1.083969465648855
1749800344.3859046,0.05224609375,-0.998291015625,0.203857421875,-1.1984732824427482,0.08396946564885496,-1.0305343511450382
1749800344.3959055,0.05419921875,-0.99755859375,0.2080078125,-1.2900763358778626,0.17557251908396945,-0.9007633587786259
1749800344.405904,0.0517578125,-1.00048828125,0.2158203125,-1.251908396946565,-1.9389312977099236,-1.2748091603053435
1749800344.4159055,0.052734375,-1.001220703125,0.206298828125,-0.9847328244274809,0.06870229007633588,-1.099236641221374
1749800344.4259043,0.05224609375,-1.001220703125,0.208740234375,-1.2595419847328244,0.10687022900763359,-1.0534351145038168
1749800344.4359052,0.047119140625,-1.015625,0.212646484375,-1.2748091603053435,-0.05343511450381679,-1.0763358778625953
1749800344.4459078,0.0595703125,-1.00341796875,0.21142578125,-1.2748091603053435,0.061068702290076333,-0.9312977099236641
1749800344.455903,0.048095703125,-0.98974609375,0.21044921875,-1.4045801526717556,-0.16030534351145037,-1.1526717557251909
1749800344.465905,0.056884765625,-0.986083984375,0.214599609375,-1.297709923664122,-1.9389312977099236,-1.0534351145038168
1749800344.4759064,0.0546875,-0.995849609375,0.21484375,-1.1450381679389312,0.12213740458015267,-1.1297709923664123
1749800344.4859035,0.05419921875,-0.99560546875,0.215087890625,-1.3358778625954197,0.022900763358778626,-1.0305343511450382
1749800344.4959054,0.054931640625,-1.0009765625,0.21728515625,-1.0305343511450382,0.0916030534351145,-0.9847328244274809
1749800344.505905,0.044189453125,-0.99462890625,0.2158203125,-1.4274809160305344,0.2366412213740458,-1.1450381679389312
1749800344.515902,0.055419921875,-1.00146484375,0.20703125,-1.3053435114503817,-0.06870229007633588,-1.1603053435114503
1749800344.5259047,0.055419921875,-1.001708984375,0.21142578125,-1.1068702290076335,0.13740458015267176,-1.1297709923664123
1749800344.5359056,0.075927734375,-0.995361328125,0.2109375,-1.2366412213740459,0.15267175572519084,-1.0229007633587786
1749800344.5459049,0.0576171875,-0.989990234375,0.214111328125,-1.251908396946565,1.9389312977099236,-1.1297709923664123
1749800344.5559068,0.05419921875,-0.998779296875,0.20703125,-1.3053435114503817,0.0916030534351145,-1.0916030534351144
1749800344.5659058,0.053955078125,-0.998291015625,0.222900390625,-1.2061068702290076,-0.09923664122137404,-0.9847328244274809
1749800344.5759041,0.0546875,-0.999755859375,0.21728515625,-1.1908396946564885,1.916030534351145,-0.9007633587786259
1749800344.58592,0.059326171875,-1.0146484375,0.21826171875,-1.3587786259541985,0.10687022900763359,-0.9923664122137404
1749800344.5959005,0.05322265625,-1.00244140625,0.2138671875,-1.2061068702290076,-0.030534351145038167,-1.0381679389312977
1749800344.605933,0.0576171875,-1.0,0.205078125,-1.2595419847328244,0.17557251908396945,-0.9847328244274809
1749800344.6159253,0.053955078125,-0.999267578125,0.2138671875,-1.0610687022900764,-0.12213740458015267,-1.0076335877862594
1749800344.6259224,0.053466796875,-1.0126953125,0.2080078125,-1.1603053435114503,0.12213740458015267,-1.0229007633587786
1749800344.6359222,0.057861328125,-1.001708984375,0.211669921875,-1.3282442748091603,-1.9541984732824427,-0.9541984732824428
1749800344.6459084,0.054443359375,-1.004150390625,0.216796875,-1.3053435114503817,-0.07633587786259542,-0.8931297709923665
1749800344.6559079,0.052734375,-0.999267578125,0.20849609375,-1.3435114503816794,-0.09923664122137404,-1.1221374045801527
1749800344.665907,0.04833984375,-0.99462890625,0.217041015625,-1.1526717557251909,0.0916030534351145,-1.083969465648855
1749800344.6759083,0.05322265625,-0.998046875,0.22412109375,-1.2213740458015268,-0.015267175572519083,-1.0916030534351144
1749800344.6859145,0.056640625,-0.997314453125,0.21240234375,-1.1908396946564885,0.0916030534351145,-0.9389312977099237
1749800344.695909,0.055908203125,-0.9892578125,0.21435546875,-1.213740458015267,0.022900763358778626,-1.0916030534351144
1749800344.7059069,0.053955078125,-0.997802734375,0.213623046875,-1.1984732824427482,0.183206106870229,-1.0076335877862594
1749800344.715909,0.0556640625,-0.991943359375,0.217041015625,-1.213740458015267,0.04580152671755725,-1.1221374045801527
1749800344.7259073,0.0546875,-0.996826171875,0.212890625,-1.2595419847328244,-0.07633587786259542,-1.1221374045801527
1749800344.7359145,0.0517578125,-0.99560546875,0.216064453125,-1.2595419847328244,-0.05343511450381679,-1.1068702290076335
1749800344.7459083,0.064453125,-0.999267578125,0.211669921875,-1.366412213740458,-0.022900763358778626,-1.1297709923664123
1749800344.7559075,0.054931640625,-0.99951171875,0.218994140625,-1.2442748091603053,0.11450381679389313,-1.0534351145038168
1749800344.7659082,0.05712890625,-0.999755859375,0.215087890625,-1.4351145038167938,0.05343511450381679,-0.9694656488549618
1749800344.7759082,0.055419921875,-0.997802734375,0.20556640625,-1.3435114503816794,0.03816793893129771,-1.1297709923664123
1749800344.7859073,0.054443359375,-1.015625,0.195556640625,-1.1755725190839694,0.05343511450381679,-0.916030534351145
1749800344.7959075,0.050537109375,-0.998779296875,0.211181640625,-1.1908396946564885,-0.11450381679389313,-1.0229007633587786
1749800344.8059072,0.0458984375,-1.004638671875,0.2158203125,-1.183206106870229,0.183206106870229,-1.1068702290076335
1749800344.8159077,0.052001953125,-1.002197265625,0.2138671875,-1.2595419847328244,-0.183206106870229,-1.0381679389312977
1749800344.8259063,0.052490234375,-1.000244140625,0.208740234375,-1.2748091603053435,0.15267175572519084,-1.015267175572519
1749800344.8359072,0.06005859375,-0.997802734375,0.209716796875,-1.3129770992366412,0.03816793893129771,-0.9923664122137404
1749800344.845907,0.054443359375,-0.996337890625,0.213623046875,-1.213740458015267,0.015267175572519083,-1.0534351145038168
1749800344.85591,0.05419921875,-1.003662109375,0.21484375,-1.282442748091603,-0.007633587786259542,-1.0305343511450382
1749800344.8659065,0.05224609375,-1.01416015625,0.21142578125,-1.2366412213740459,-0.030534351145038167,-0.9312977099236641
1749800344.875908,0.054443359375,-0.9853515625,0.206787109375,-1.3969465648854962,0.1297709923664122,-1.1374045801526718
1749800344.8859062,0.053955078125,-0.999267578125,0.212646484375,-1.282442748091603,0.022900763358778626,-1.0458015267175573
1749800344.8959074,0.051025390625,-0.9990234375,0.21826171875,-1.16793893129771,1.8931297709923665,-0.9465648854961832
1749800344.9059064,0.05126953125,-1.000732421875,0.216552734375,-1.2748091603053435,-0.022900763358778626,-1.0458015267175573
1749800344.9159088,0.060546875,-0.998779296875,0.212646484375,-1.16793893129771,1.9312977099236641,-0.9694656488549618
1749800344.9259071,0.056884765625,-0.993408203125,0.21484375,-1.2366412213740459,-0.03816793893129771,-1.015267175572519
1749800344.9359074,0.058837890625,-0.99658203125,0.2060546875,-1.099236641221374,1.9465648854961832,-0.9083969465648855
1749800344.9459143,0.05126953125,-1.015625,0.208251953125,-1.4580152671755726,0.030534351145038167,-0.9694656488549618
1749800344.9559078,0.0478515625,-1.015625,0.211181640625,-1.2748091603053435,-1.9465648854961832,-1.0381679389312977
1749800344.9659066,0.0595703125,-0.996337890625,0.2138671875,-1.251908396946565,-0.1984732824427481,-0.9770992366412213
1749800344.9759092,0.053466796875,-0.99609375,0.20654296875,-1.2061068702290076,0.11450381679389313,-1.0763358778625953
1749800344.9859073,0.054443359375,-1.001708984375,0.21728515625,-1.1068702290076335,0.20610687022900764,-1.1145038167938932
1749800344.9959075,0.061279296875,-0.996337890625,0.218994140625,-1.1603053435114503,0.26717557251908397,-1.0534351145038168
1749800345.0059073,0.0556640625,-0.99755859375,0.215087890625,-1.0916030534351144,0.07633587786259542,-1.0763358778625953
1749800345.0159044,0.058349609375,-0.99560546875,0.213623046875,-1.3358778625954197,-0.11450381679389313,-1.16793893129771
1749800345.0259068,0.05859375,-0.998779296875,0.203125,-1.2595419847328244,0.07633587786259542,-1.099236641221374
1749800345.035907,0.0546875,-0.996826171875,0.21142578125,-1.16793893129771,-0.15267175572519084,-1.1221374045801527
1749800345.0459108,0.058837890625,-0.986328125,0.215576171875,-1.3435114503816794,0.06870229007633588,-1.0
1749800345.0559087,0.05810546875,-1.0029296875,0.20947265625,-1.213740458015267,0.06870229007633588,-1.0687022900763359
1749800345.0659065,0.050048828125,-0.9990234375,0.20703125,-1.2671755725190839,1.9389312977099236,-0.9007633587786259
1749800345.075908,0.053955078125,-0.9990234375,0.219970703125,-1.213740458015267,-0.030534351145038167,-1.1145038167938932
1749800345.0859103,0.047607421875,-0.99609375,0.22509765625,-1.2595419847328244,0.030534351145038167,-0.916030534351145
1749800345.0959072,0.051025390625,-1.000732421875,0.208984375,-1.2900763358778626,0.13740458015267176,-1.0305343511450382
1749800345.1059096,0.046875,-0.985595703125,0.219482421875,-1.2671755725190839,0.2748091603053435,-1.083969465648855
1749800345.115909,0.0498046875,-0.998779296875,0.217041015625,-1.1984732824427482,-0.04580152671755725,-1.0687022900763359
1749800345.1259062,0.058349609375,-1.00341796875,0.21533203125,-1.282442748091603,0.0916030534351145,-0.9847328244274809
1749800345.135907,0.053466796875,-1.00390625,0.228271484375,-1.2442748091603053,1.83206106870229,-1.1755725190839694
1749800345.1459072,0.053955078125,-1.001220703125,0.21435546875,-1.251908396946565,0.04580152671755725,-1.16793893129771
1749800345.1559079,0.055419921875,-1.00146484375,0.210693359375,-1.1755725190839694,-0.007633587786259542,-0.9083969465648855
1749800345.1659074,0.0478515625,-0.999755859375,0.21826171875,-1.2366412213740459,-0.061068702290076333,-1.0763358778625953
1749800345.1759086,0.04833984375,-1.002685546875,0.212646484375,-1.2671755725190839,0.030534351145038167,-1.0687022900763359
1749800345.1859074,0.05322265625,-0.995849609375,0.212646484375,-1.1755725190839694,0.11450381679389313,-0.9312977099236641
1749800345.195909,0.05078125,-0.99951171875,0.215576171875,-1.366412213740458,0.07633587786259542,-1.0916030534351144
1749800345.205907,0.0517578125,-0.999267578125,0.218017578125,-1.297709923664122,0.17557251908396945,-0.9541984732824428
1749800345.2159085,0.050537109375,-0.985107421875,0.206787109375,-1.16793893129771,-0.12213740458015267,-1.099236641221374
1749800345.2259104,0.0546875,-0.99365234375,0.2158203125,-1.3282442748091603,1.9465648854961832,-1.083969465648855
1749800345.2359018,0.056640625,-0.99951171875,0.207763671875,-1.1755725190839694,-0.11450381679389313,-1.0381679389312977
1749800345.2459068,0.057861328125,-0.996826171875,0.20263671875,-1.2442748091603053,-1.9465648854961832,-1.16793893129771
1749800345.2559083,0.051025390625,-1.001708984375,0.21826171875,-1.183206106870229,0.06870229007633588,-1.1908396946564885
1749800345.2659066,0.058837890625,-1.0146484375,0.214111328125,-1.16793893129771,0.04580152671755725,-0.8854961832061069
1749800345.275908,0.052490234375,-0.99560546875,0.214599609375,-1.3206106870229009,-0.05343511450381679,-0.9389312977099237
1749800345.2859063,0.057861328125,-0.985595703125,0.21142578125,-1.2900763358778626,0.03816793893129771,-1.0305343511450382
1749800345.2959023,0.050048828125,-1.003173828125,0.216796875,-1.1145038167938932,0.015267175572519083,-1.0381679389312977
1749800345.3059072,0.04736328125,-0.998779296875,0.213623046875,-1.2290076335877862,1.900763358778626,-1.099236641221374
1749800345.3159094,0.058349609375,-0.999267578125,0.21044921875,-1.1145038167938932,0.030534351145038167,-1.0076335877862594
1749800345.325907,0.051513671875,-0.992431640625,0.213134765625,-1.282442748091603,-0.24427480916030533,-1.0916030534351144
1749800345.3359082,0.0546875,-1.00244140625,0.224853515625,-1.1526717557251909,-1.916030534351145,-1.0763358778625953
1749800345.3459067,0.05224609375,-0.99755859375,0.208984375,-1.1374045801526718,0.183206106870229,-1.0610687022900764
1749800345.3559027,0.05078125,-1.008544921875,0.205322265625,-1.2061068702290076,0.19083969465648856,-1.0534351145038168
1749800345.365907,0.059814453125,-0.99951171875,0.230224609375,-1.1374045801526718,-0.06870229007633588,-0.916030534351145
1749800345.3759067,0.0498046875,-1.01171875,0.208251953125,-1.3740458015267176,1.9465648854961832,-0.9465648854961832
1749800345.385906,0.05517578125,-1.0009765625,0.2177734375,-1.251908396946565,0.0916030534351145,-1.0305343511450382
1749800345.3959105,0.053955078125,-0.99755859375,0.203369140625,-1.16793893129771,1.900763358778626,-0.9694656488549618
1749800345.4059072,0.05419921875,-0.996826171875,0.211669921875,-1.1984732824427482,1.9083969465648856,-0.9618320610687023
1749800345.415909,0.0478515625,-1.0009765625,0.212646484375,-1.1908396946564885,0.1450381679389313,-1.0687022900763359
1749800345.4259095,0.058837890625,-1.000244140625,0.207275390625,-1.183206106870229,0.1450381679389313,-1.015267175572519
1749800345.435907,0.049560546875,-1.00048828125,0.21337890625,-1.1068702290076335,-0.007633587786259542,-0.9770992366412213
1749800345.4459074,0.053955078125,-0.984619140625,0.213134765625,-1.2366412213740459,0.1297709923664122,-0.9694656488549618
1749800345.455907,0.05419921875,-0.994384765625,0.227294921875,-1.0610687022900764,0.022900763358778626,-1.0610687022900764
1749800345.4659064,0.054931640625,-0.99853515625,0.2109375,-1.213740458015267,-0.10687022900763359,-1.0
1749800345.4759076,0.05078125,-0.999755859375,0.20947265625,-1.083969465648855,0.061068702290076333,-0.9618320610687023
1749800345.4859095,0.049560546875,-0.997802734375,0.2099609375,-1.1984732824427482,0.022900763358778626,-1.0076335877862594
1749800345.495908,0.053466796875,-1.001953125,0.215576171875,-1.3206106870229009,0.1297709923664122,-1.1297709923664123
1749800345.5059066,0.04833984375,-0.998046875,0.212890625,-1.1221374045801527,0.22137404580152673,-1.0381679389312977
1749800345.5159085,0.049072265625,-0.996337890625,0.212890625,-1.2366412213740459,-1.9083969465648856,-1.0687022900763359
1749800345.5259068,0.05224609375,-1.015625,0.2158203125,-1.099236641221374,0.0,-0.8473282442748091
1749800345.5359075,0.056640625,-0.99853515625,0.216796875,-1.183206106870229,1.8931297709923665,-1.0534351145038168
1749800345.5459077,0.056884765625,-1.01416015625,0.216796875,-1.1297709923664123,0.08396946564885496,-0.9083969465648855
1749800345.5559134,0.052490234375,-0.999267578125,0.211669921875,-1.0458015267175573,-0.13740458015267176,-1.015267175572519
1749800345.565915,0.05078125,-0.999755859375,0.2158203125,-1.251908396946565,-0.09923664122137404,-0.9923664122137404
1749800345.5759075,0.05712890625,-1.0009765625,0.214111328125,-1.2290076335877862,1.916030534351145,-0.8778625954198473
1749800345.5859194,0.056640625,-0.99609375,0.204833984375,-1.1908396946564885,0.0,-1.0229007633587786
1749800345.595954,0.05419921875,-1.001708984375,0.210205078125,-1.2213740458015268,0.1450381679389313,-0.9847328244274809
1749800345.6059396,0.05419921875,-1.00146484375,0.217041015625,-1.297709923664122,0.21374045801526717,-1.213740458015267
1749800345.6159325,0.048583984375,-0.9990234375,0.216796875,-1.1221374045801527,-0.015267175572519083,-0.9923664122137404
1749800345.6259086,0.055419921875,-1.0146484375,0.205810546875,-1.251908396946565,-0.06870229007633588,-1.0687022900763359
1749800345.6359093,0.0546875,-1.0029296875,0.219482421875,-1.2900763358778626,0.04580152671755725,-1.0534351145038168
1749800345.6459064,0.053466796875,-0.996826171875,0.205810546875,-1.3206106870229009,0.22137404580152673,-1.1068702290076335
1749800345.65591,0.05322265625,-0.99658203125,0.215576171875,-1.2595419847328244,0.0916030534351145,-1.0534351145038168
1749800345.6661534,0.050537109375,-1.001953125,0.210205078125,-1.1450381679389312,0.0,-1.0916030534351144
1749800345.6759136,0.048583984375,-1.001220703125,0.20654296875,-1.0534351145038168,0.0916030534351145,-1.099236641221374
1749800345.6859071,0.05810546875,-1.000244140625,0.207275390625,-1.381679389312977,-0.015267175572519083,-1.1297709923664123
1749800345.6959088,0.0537109375,-1.005126953125,0.227783203125,-1.1603053435114503,0.13740458015267176,-0.9847328244274809
1749800345.705907,0.054443359375,-1.009521484375,0.211181640625,-1.1374045801526718,-0.07633587786259542,-1.282442748091603
1749800345.7159107,0.057373046875,-0.997314453125,0.210693359375,-1.2442748091603053,-1.9312977099236641,-0.8854961832061069
1749800345.7259078,0.057373046875,-0.990966796875,0.2197265625,-1.1297709923664123,0.05343511450381679,-1.0
1749800345.7359118,0.049072265625,-1.004150390625,0.210693359375,-1.2213740458015268,1.9465648854961832,-1.1374045801526718
1749800345.7459085,0.052490234375,-0.998046875,0.218994140625,-1.2442748091603053,-0.12213740458015267,-1.1374045801526718
1749800345.755905,0.05615234375,-1.0048828125,0.21240234375,-1.282442748091603,0.04580152671755725,-1.015267175572519
1749800345.765908,0.055908203125,-0.9853515625,0.205322265625,-1.1221374045801527,0.1450381679389313,-1.0381679389312977
1749800345.7759087,0.055908203125,-0.997802734375,0.230224609375,-1.1450381679389312,0.0,-0.9465648854961832
1749800345.7859068,0.056884765625,-1.001708984375,0.208251953125,-1.2442748091603053,1.8931297709923665,-1.0763358778625953
1749800345.795908,0.061767578125,-0.985595703125,0.232666015625,-1.2213740458015268,0.007633587786259542,-0.9236641221374046
1749800345.805906,0.053955078125,-0.997314453125,0.20849609375,-1.3435114503816794,-1.916030534351145,-1.251908396946565
1749800345.8159072,0.05615234375,-0.998046875,0.216552734375,-1.1755725190839694,0.05343511450381679,-1.0076335877862594
1749800345.8259106,0.054443359375,-0.995361328125,0.210205078125,-1.3587786259541985,0.08396946564885496,-0.916030534351145
1749800345.8359098,0.0546875,-0.998046875,0.20751953125,-1.2442748091603053,0.06870229007633588,-1.1908396946564885
1749800345.8459082,0.055908203125,-1.001220703125,0.21875,-1.251908396946565,0.015267175572519083,-1.0916030534351144
1749800345.8559191,0.05029296875,-1.00244140625,0.213623046875,-1.183206106870229,0.07633587786259542,-1.0916030534351144
1749800345.8659077,0.053466796875,-0.98583984375,0.21044921875,-1.183206106870229,-0.06870229007633588,-1.0458015267175573
1749800345.8759086,0.048828125,-0.986083984375,0.21044921875,-1.282442748091603,0.0,-1.0381679389312977
1749800345.8859067,0.048583984375,-0.990966796875,0.2080078125,-1.1984732824427482,-1.9312977099236641,-1.1526717557251909
1749800345.895908,0.056884765625,-1.001708984375,0.212646484375,-1.0381679389312977,0.10687022900763359,-1.083969465648855
1749800345.9059064,0.05322265625,-0.995361328125,0.209716796875,-1.1755725190839694,-0.17557251908396945,-0.9847328244274809
1749800345.9159086,0.055419921875,-1.0,0.20703125,-1.0763358778625953,0.17557251908396945,-0.9389312977099237
1749800345.9259076,0.056396484375,-0.994140625,0.214111328125,-1.1984732824427482,0.0916030534351145,-1.1526717557251909
1749800345.935909,0.0517578125,-1.01171875,0.214111328125,-1.5114503816793894,0.0,-0.9312977099236641
1749800345.9459136,0.05712890625,-0.989501953125,0.1884765625,-1.2442748091603053,0.061068702290076333,-0.9236641221374046
1749800345.9559004,0.056640625,-0.996337890625,0.207275390625,-1.2213740458015268,0.183206106870229,-1.0610687022900764
1749800345.9659064,0.053466796875,-0.984619140625,0.213134765625,-1.1145038167938932,-1.9465648854961832,-1.015267175572519
1749800345.9759095,0.05224609375,-1.00244140625,0.21435546875,-1.2748091603053435,0.11450381679389313,-1.1297709923664123
1749800345.985907,0.05078125,-0.99853515625,0.212158203125,-1.2748091603053435,0.183206106870229,-1.1908396946564885
1749800345.995908,0.058837890625,-0.997314453125,0.203125,-1.3587786259541985,-1.900763358778626,-1.1603053435114503
1749800346.0059114,0.05419921875,-0.996337890625,0.208984375,-1.2213740458015268,-0.07633587786259542,-1.0534351145038168
1749800346.0159087,0.047119140625,-0.9970703125,0.216796875,-1.2290076335877862,-1.9465648854961832,-1.1221374045801527
1749800346.0259066,0.039306640625,-0.998779296875,0.212158203125,-1.213740458015267,0.1297709923664122,-1.015267175572519
1749800346.0359101,0.050048828125,-1.0126953125,0.216064453125,-1.1297709923664123,0.06870229007633588,-1.1984732824427482
1749800346.0459104,0.050048828125,-0.99755859375,0.21435546875,-1.183206106870229,0.11450381679389313,-0.9618320610687023
1749800346.0559092,0.055908203125,-0.9990234375,0.21435546875,-1.1755725190839694,0.10687022900763359,-0.9770992366412213
1749800346.0659103,0.05517578125,-0.996337890625,0.21435546875,-1.213740458015267,0.183206106870229,-1.0229007633587786
1749800346.0759058,0.05224609375,-0.996826171875,0.21484375,-1.2061068702290076,0.06870229007633588,-1.16793893129771
1749800346.0859077,0.056884765625,-1.002197265625,0.2109375,-1.2290076335877862,0.06870229007633588,-0.8625954198473282
1749800346.0959108,0.05224609375,-1.0,0.2138671875,-1.1297709923664123,0.16030534351145037,-1.1297709923664123
1749800346.1059074,0.050048828125,-1.015380859375,0.2109375,-1.297709923664122,0.10687022900763359,-1.0687022900763359
1749800346.1159084,0.053955078125,-1.012451171875,0.2294921875,-1.4122137404580153,-1.9389312977099236,-1.0916030534351144
1749800346.125909,0.061279296875,-1.001708984375,0.21044921875,-1.2595419847328244,0.022900763358778626,-1.015267175572519
1749800346.1359093,0.04833984375,-1.004638671875,0.210205078125,-1.2366412213740459,-0.030534351145038167,-1.0534351145038168
1749800346.1459076,0.0556640625,-1.005615234375,0.213134765625,-1.251908396946565,-0.061068702290076333,-1.015267175572519
1749800346.1559033,0.053955078125,-1.0009765625,0.220947265625,-1.1374045801526718,-0.05343511450381679,-1.0229007633587786
1749800346.1659074,0.0556640625,-0.998046875,0.208984375,-1.1908396946564885,0.2366412213740458,-0.9923664122137404
1749800346.1759088,0.055419921875,-1.0009765625,0.20068359375,-1.3282442748091603,-0.05343511450381679,-1.0
1749800346.1859074,0.059814453125,-1.01513671875,0.205810546875,-1.3740458015267176,0.1450381679389313,-1.1068702290076335
1749800346.1959074,0.060302734375,-0.98486328125,0.21240234375,-1.2671755725190839,0.20610687022900764,-1.015267175572519
1749800346.205907,0.05322265625,-1.005859375,0.210205078125,-1.2061068702290076,-0.09923664122137404,-1.0
1749800346.215908,0.05078125,-0.99755859375,0.208740234375,-1.282442748091603,-0.09923664122137404,-1.015267175572519
1749800346.2259073,0.0537109375,-0.999267578125,0.216552734375,-1.1984732824427482,0.12213740458015267,-0.9236641221374046
1749800346.2359095,0.053955078125,-1.006591796875,0.2158203125,-1.2213740458015268,0.030534351145038167,-1.183206106870229
1749800346.2459083,0.05712890625,-0.99609375,0.21533203125,-1.3740458015267176,1.8549618320610688,-1.183206106870229
1749800346.255908,0.053466796875,-0.9990234375,0.215576171875,-1.183206106870229,-0.13740458015267176,-0.9465648854961832
1749800346.2659073,0.052490234375,-0.985595703125,0.208740234375,-1.2061068702290076,-1.9465648854961832,-1.015267175572519
1749800346.275908,0.05322265625,-1.01171875,0.211181640625,-1.297709923664122,0.1297709923664122,-0.9923664122137404
1749800346.2859075,0.056884765625,-0.987060546875,0.216064453125,-1.2442748091603053,0.07633587786259542,-1.1221374045801527
1749800346.2959087,0.053466796875,-1.00830078125,0.21728515625,-1.3740458015267176,0.0,-1.0229007633587786
1749800346.3059068,0.0556640625,-0.999755859375,0.213134765625,-1.4198473282442747,-1.8854961832061068,-1.0534351145038168
1749800346.3159032,0.055419921875,-1.004150390625,0.215576171875,-1.2671755725190839,0.19083969465648856,-1.0534351145038168
1749800346.3259068,0.050048828125,-0.998291015625,0.211181640625,-1.534351145038168,0.2824427480916031,-0.8931297709923665
1749800346.335908,0.054931640625,-0.995361328125,0.212646484375,-1.282442748091603,-0.030534351145038167,-1.2061068702290076
1749800346.3459084,0.05517578125,-1.0,0.209716796875,-1.2595419847328244,0.16030534351145037,-0.9923664122137404
1749800346.3559089,0.052734375,-1.004638671875,0.20361328125,-1.282442748091603,0.183206106870229,-1.1450381679389312
1749800346.3659062,0.056884765625,-1.01220703125,0.203857421875,-1.1526717557251909,0.09923664122137404,-0.9694656488549618
1749800346.3759108,0.04736328125,-0.999755859375,0.203125,-1.2213740458015268,-0.16793893129770993,-1.1755725190839694
1749800346.3859072,0.0556640625,-0.99853515625,0.209716796875,-1.251908396946565,-0.09923664122137404,-1.282442748091603
1749800346.3959079,0.0595703125,-1.004150390625,0.2138671875,-1.3206106870229009,0.183206106870229,-1.0381679389312977
1749800346.405907,0.04931640625,-1.002197265625,0.21142578125,-1.1450381679389312,0.04580152671755725,-1.1145038167938932
1749800346.4159071,0.05419921875,-0.9970703125,0.20947265625,-1.4045801526717556,0.29770992366412213,-1.0458015267175573
1749800346.4259079,0.052001953125,-0.996337890625,0.218505859375,-1.1068702290076335,0.12213740458015267,-1.1068702290076335
1749800346.4359076,0.053955078125,-0.996826171875,0.207763671875,-1.2442748091603053,0.1450381679389313,-1.1755725190839694
1749800346.4459102,0.052490234375,-1.001708984375,0.2099609375,-1.2748091603053435,1.9465648854961832,-1.015267175572519
1749800346.4559066,0.052734375,-1.0048828125,0.215576171875,-1.16793893129771,0.07633587786259542,-0.9465648854961832
1749800346.465907,0.05810546875,-0.996337890625,0.220458984375,-1.1374045801526718,0.061068702290076333,-0.8931297709923665
1749800346.475908,0.048828125,-0.99755859375,0.210693359375,-1.2595419847328244,0.04580152671755725,-1.0381679389312977
1749800346.4859102,0.055419921875,-1.001220703125,0.223388671875,-1.3206106870229009,0.061068702290076333,-1.1068702290076335
1749800346.4959078,0.055908203125,-0.998779296875,0.208740234375,-1.2366412213740459,0.19083969465648856,-1.0534351145038168
1749800346.5059066,0.05224609375,-0.9990234375,0.2119140625,-1.183206106870229,-0.1297709923664122,-1.0381679389312977
1749800346.515909,0.053955078125,-0.997314453125,0.203857421875,-1.2061068702290076,0.15267175572519084,-0.9618320610687023
1749800346.5259066,0.056396484375,-1.0107421875,0.2158203125,-1.4351145038167938,-0.0916030534351145,-1.1145038167938932
1749800346.535905,0.0478515625,-1.0029296875,0.2119140625,-1.251908396946565,0.10687022900763359,-1.0534351145038168
1749800346.5459075,0.056640625,-1.00244140625,0.2119140625,-1.16793893129771,0.07633587786259542,-1.1221374045801527
1749800346.55591,0.05224609375,-1.001220703125,0.20947265625,-1.3358778625954197,-0.04580152671755725,-1.1984732824427482
1749800346.565909,0.051513671875,-1.002685546875,0.21484375,-1.3053435114503817,0.16030534351145037,-1.0305343511450382
1749800346.575909,0.055419921875,-0.99658203125,0.205078125,-1.251908396946565,0.16793893129770993,-0.9541984732824428
1749800346.5859125,0.054443359375,-1.001708984375,0.213134765625,-1.2290076335877862,0.2824427480916031,-1.1908396946564885
1749800346.595939,0.046630859375,-0.99853515625,0.208740234375,-1.3282442748091603,0.061068702290076333,-1.1984732824427482
1749800346.6059265,0.060546875,-1.000732421875,0.205322265625,-1.1374045801526718,0.11450381679389313,-1.0534351145038168
1749800346.615924,0.0546875,-1.005615234375,0.212646484375,-1.1603053435114503,0.2366412213740458,-0.8320610687022901
1749800346.6259093,0.056884765625,-0.9931640625,0.21826171875,-1.1068702290076335,0.13740458015267176,-1.0763358778625953
1749800346.6359088,0.05322265625,-1.001220703125,0.213623046875,-1.1984732824427482,1.9312977099236641,-1.0305343511450382
1749800346.645907,0.05859375,-0.999755859375,0.213134765625,-1.1755725190839694,0.0916030534351145,-1.1145038167938932
1749800346.6559095,0.05517578125,-1.0068359375,0.214111328125,-1.2366412213740459,0.13740458015267176,-1.1221374045801527
1749800346.6659079,0.058349609375,-1.00244140625,0.2119140625,-1.251908396946565,0.1297709923664122,-1.0687022900763359
1749800346.675907,0.0546875,-1.014404296875,0.21044921875,-1.2290076335877862,-1.8778625954198473,-0.9083969465648855
1749800346.685906,0.0556640625,-0.99560546875,0.204833984375,-1.297709923664122,-0.16030534351145037,-1.1526717557251909
1749800346.6959076,0.0537109375,-0.998291015625,0.225341796875,-1.1297709923664123,0.06870229007633588,-0.9007633587786259
1749800346.7059073,0.054443359375,-1.00146484375,0.21044921875,-1.1526717557251909,0.2366412213740458,-1.1145038167938932
1749800346.715907,0.047607421875,-1.00634765625,0.22314453125,-1.1603053435114503,0.061068702290076333,-1.1068702290076335
1749800346.725907,0.057861328125,-0.995849609375,0.220458984375,-1.1526717557251909,0.0916030534351145,-1.0229007633587786
1749800346.7359042,0.0546875,-0.99560546875,0.207275390625,-1.297709923664122,0.0,-1.015267175572519
1749800346.7459083,0.057373046875,-0.998046875,0.21826171875,-1.3206106870229009,-0.06870229007633588,-1.015267175572519
1749800346.7559059,0.058349609375,-0.98583984375,0.21142578125,-1.1221374045801527,0.0,-0.9389312977099237
1749800346.7659254,0.05029296875,-1.003662109375,0.2109375,-1.1984732824427482,0.06870229007633588,-1.1297709923664123
1749800346.7759163,0.052490234375,-1.003173828125,0.21435546875,-1.1908396946564885,0.0916030534351145,-1.3053435114503817
1749800346.785907,0.0576171875,-1.001220703125,0.2138671875,-1.0305343511450382,0.13740458015267176,-0.9541984732824428
1749800346.7959085,0.048583984375,-0.997314453125,0.222900390625,-1.2595419847328244,0.12213740458015267,-1.1984732824427482
1749800346.805907,0.0625,-1.00146484375,0.224365234375,-1.3358778625954197,-0.022900763358778626,-1.1526717557251909
1749800346.8159075,0.04931640625,-0.998291015625,0.2158203125,-1.2290076335877862,0.08396946564885496,-0.916030534351145
1749800346.8259065,0.047119140625,-0.995361328125,0.209228515625,-1.282442748091603,0.06870229007633588,-1.0305343511450382
1749800346.8359084,0.06103515625,-0.999267578125,0.2099609375,-1.2442748091603053,0.07633587786259542,-1.0687022900763359
1749800346.8459084,0.034423828125,-1.00341796875,0.209716796875,-1.3740458015267176,0.1450381679389313,-1.1755725190839694
1749800346.8559084,0.056884765625,-1.01123046875,0.2314453125,-1.1450381679389312,0.007633587786259542,-1.251908396946565
1749800346.8659062,0.054443359375,-1.005126953125,0.214111328125,-1.2595419847328244,0.0,-1.1145038167938932
1749800346.8759077,0.058837890625,-0.994873046875,0.218994140625,-1.0229007633587786,0.06870229007633588,-0.9007633587786259
1749800346.8859067,0.050537109375,-1.007080078125,0.21728515625,-1.0381679389312977,-0.0916030534351145,-1.0381679389312977
1749800346.8959117,0.050048828125,-1.0029296875,0.218505859375,-1.1755725190839694,0.16030534351145037,-1.1145038167938932
1749800346.905907,0.056396484375,-0.99609375,0.2158203125,-1.1755725190839694,0.1450381679389313,-0.8396946564885496
1749800346.9159076,0.056884765625,-0.990234375,0.212158203125,-1.2595419847328244,0.09923664122137404,-1.1450381679389312
1749800346.925906,0.052734375,-0.99267578125,0.2294921875,-1.3129770992366412,-1.9465648854961832,-1.015267175572519
1749800346.9359076,0.0546875,-0.987548828125,0.205078125,-1.1526717557251909,-1.8854961832061068,-0.9389312977099237
1749800346.945912,0.056396484375,-0.99951171875,0.206787109375,-1.297709923664122,0.16793893129770993,-1.3129770992366412
1749800346.9559124,0.057373046875,-1.0048828125,0.2109375,-1.1297709923664123,0.05343511450381679,-0.9083969465648855
1749800346.9659073,0.058837890625,-1.00048828125,0.208984375,-1.251908396946565,-0.04580152671755725,-1.083969465648855
1749800346.9759092,0.05224609375,-0.994873046875,0.210205078125,-1.2671755725190839,0.12213740458015267,-1.1450381679389312
1749800346.9859073,0.05419921875,-1.000244140625,0.212158203125,-1.3282442748091603,0.2366412213740458,-1.2671755725190839
1749800346.995908,0.048828125,-1.013916015625,0.21826171875,-1.3435114503816794,0.05343511450381679,-1.0534351145038168
1749800347.0059068,0.054931640625,-1.01513671875,0.2109375,-1.2290076335877862,0.0916030534351145,-1.0229007633587786
1749800347.0159078,0.058349609375,-0.9873046875,0.2119140625,-1.099236641221374,0.1297709923664122,-1.0763358778625953
1749800347.0259063,0.056396484375,-1.009521484375,0.207763671875,-1.2442748091603053,0.2595419847328244,-1.0381679389312977
1749800347.035909,0.050537109375,-0.996337890625,0.21142578125,-1.213740458015267,0.183206106870229,-1.1374045801526718
1749800347.0459085,0.052978515625,-1.0029296875,0.22412109375,-1.3511450381679388,-0.061068702290076333,-1.0381679389312977
1749800347.0559084,0.061767578125,-1.0,0.22705078125,-1.0763358778625953,-0.05343511450381679,-1.1068702290076335
1749800347.0659103,0.0517578125,-0.99951171875,0.2060546875,-1.2595419847328244,0.0916030534351145,-1.2061068702290076
1749800347.0759084,0.056640625,-0.99560546875,0.207763671875,-1.0534351145038168,1.9312977099236641,-1.0458015267175573
1749800347.0859072,0.053955078125,-0.9892578125,0.207275390625,-1.0687022900763359,0.09923664122137404,-1.015267175572519
1749800347.0959077,0.0546875,-0.98828125,0.23095703125,-1.0916030534351144,-0.06870229007633588,-1.0534351145038168
1749800347.105906,0.063720703125,-0.99609375,0.211669921875,-1.4351145038167938,0.22137404580152673,-1.1603053435114503
1749800347.115908,0.05712890625,-0.9990234375,0.2099609375,-1.2900763358778626,0.1297709923664122,-1.0610687022900764
1749800347.1259065,0.0537109375,-1.0009765625,0.212158203125,-1.2595419847328244,1.9465648854961832,-1.1755725190839694
1749800347.1359072,0.0576171875,-0.99267578125,0.205810546875,-1.2290076335877862,0.03816793893129771,-0.9847328244274809
1749800347.1459074,0.05419921875,-1.003173828125,0.21630859375,-1.0076335877862594,0.22137404580152673,-0.9694656488549618
1749800347.155908,0.048583984375,-1.0048828125,0.216064453125,-1.1984732824427482,-0.12213740458015267,-1.0458015267175573
1749800347.1659071,0.054931640625,-0.98486328125,0.2099609375,-1.1374045801526718,-0.10687022900763359,-1.0610687022900764
1749800347.1759117,0.055419921875,-1.0146484375,0.234130859375,-1.3587786259541985,0.05343511450381679,-1.0763358778625953
1749800347.1859066,0.052734375,-0.9970703125,0.2158203125,-1.4122137404580153,0.022900763358778626,-1.1068702290076335
1749800347.1959093,0.05859375,-0.994873046875,0.207763671875,-1.4122137404580153,0.007633587786259542,-0.9923664122137404
1749800347.2059073,0.05615234375,-0.99951171875,0.204833984375,-1.1984732824427482,0.15267175572519084,-1.1068702290076335
1749800347.215909,0.0498046875,-0.99658203125,0.212646484375,-1.083969465648855,-0.06870229007633588,-0.9389312977099237
1749800347.2259076,0.0546875,-0.998779296875,0.222412109375,-1.0381679389312977,0.0916030534351145,-1.213740458015267
1749800347.2359085,0.06201171875,-1.0029296875,0.20654296875,-1.1450381679389312,-0.04580152671755725,-1.015267175572519
1749800347.245907,0.03125,-1.015380859375,0.218017578125,-1.2671755725190839,-0.07633587786259542,-1.0687022900763359
1749800347.2559078,0.050537109375,-1.003662109375,0.204833984375,-1.282442748091603,0.015267175572519083,-0.9923664122137404
1749800347.2659068,0.060302734375,-0.997314453125,0.208251953125,-1.534351145038168,0.11450381679389313,-1.0381679389312977
1749800347.275903,0.050048828125,-1.00439453125,0.218017578125,-1.3969465648854962,0.13740458015267176,-1.099236641221374
1749800347.285907,0.0595703125,-1.00341796875,0.21142578125,-1.1908396946564885,0.10687022900763359,-0.9847328244274809
1749800347.2959085,0.047607421875,-1.0009765625,0.208251953125,-1.1984732824427482,-0.05343511450381679,-1.0687022900763359
1749800347.3059065,0.054931640625,-1.005615234375,0.21533203125,-1.2671755725190839,-0.0916030534351145,-1.083969465648855
1749800347.3159184,0.0498046875,-1.002197265625,0.2138671875,-1.0229007633587786,-0.022900763358778626,-0.8015267175572519
1749800347.325907,0.05859375,-1.002197265625,0.206787109375,-1.2061068702290076,1.9312977099236641,-1.083969465648855
1749800347.3359077,0.05029296875,-0.9990234375,0.212158203125,-1.1068702290076335,-0.04580152671755725,-1.1374045801526718
1749800347.345908,0.052734375,-0.986083984375,0.215576171875,-1.1297709923664123,1.9465648854961832,-1.083969465648855
1749800347.3559086,0.060546875,-0.996826171875,0.208740234375,-1.251908396946565,-1.9236641221374047,-1.0763358778625953
1749800347.3659074,0.054443359375,-0.997802734375,0.219482421875,-1.0763358778625953,0.17557251908396945,-1.1145038167938932
1749800347.3759077,0.054931640625,-1.001953125,0.21337890625,-1.2442748091603053,0.015267175572519083,-1.0916030534351144
1749800347.3859065,0.054931640625,-1.0,0.20556640625,-1.251908396946565,-0.03816793893129771,-1.0458015267175573
1749800347.3959138,0.053955078125,-0.998046875,0.211181640625,-0.9465648854961832,0.007633587786259542,-1.0458015267175573
1749800347.4059074,0.053955078125,-0.9970703125,0.21875,-1.3740458015267176,1.9083969465648856,-1.0
1749800347.4159079,0.052978515625,-0.999267578125,0.224609375,-1.3893129770992367,-0.05343511450381679,-1.0916030534351144
1749800347.4259062,0.0556640625,-1.000732421875,0.208740234375,-1.1755725190839694,0.11450381679389313,-1.0610687022900764
1749800347.435908,0.051025390625,-1.00146484375,0.209716796875,-1.2061068702290076,-0.03816793893129771,-1.0381679389312977
1749800347.445907,0.0556640625,-1.00048828125,0.209228515625,-1.450381679389313,0.22137404580152673,-1.0916030534351144
1749800347.4559078,0.052001953125,-0.9990234375,0.20947265625,-1.2366412213740459,0.11450381679389313,-0.9847328244274809
1749800347.4659076,0.05322265625,-0.99462890625,0.211669921875,-1.4809160305343512,0.06870229007633588,-1.1603053435114503
1749800347.4759092,0.051513671875,-1.00146484375,0.205078125,-1.183206106870229,0.07633587786259542,-1.0610687022900764
1749800347.4859073,0.05517578125,-1.009765625,0.21533203125,-1.3358778625954197,-0.07633587786259542,-1.015267175572519
1749800347.4959083,0.056884765625,-0.984619140625,0.2138671875,-1.1526717557251909,-1.9389312977099236,-1.1984732824427482
1749800347.5059066,0.058349609375,-0.98681640625,0.2275390625,-1.213740458015267,0.12213740458015267,-0.9923664122137404
1749800347.515908,0.055419921875,-1.014892578125,0.205810546875,-1.16793893129771,0.19083969465648856,-0.9007633587786259
1749800347.525906,0.054931640625,-1.002685546875,0.2138671875,-1.1755725190839694,0.07633587786259542,-0.9389312977099237
1749800347.5359082,0.04541015625,-1.000244140625,0.216064453125,-1.1755725190839694,0.1984732824427481,-0.9618320610687023
1749800347.5459065,0.050537109375,-0.997802734375,0.2119140625,-1.3282442748091603,-0.05343511450381679,-1.0458015267175573
1749800347.55591,0.052001953125,-1.00390625,0.21484375,-1.2290076335877862,0.09923664122137404,-1.015267175572519
1749800347.565909,0.05615234375,-1.012939453125,0.210205078125,-1.1374045801526718,0.04580152671755725,-1.083969465648855
1749800347.5759087,0.05517578125,-0.987548828125,0.225341796875,-1.2213740458015268,0.030534351145038167,-0.9618320610687023
1749800347.5859177,0.0576171875,-0.99609375,0.216064453125,-1.1297709923664123,0.03816793893129771,-1.16793893129771
1749800347.5960565,0.05322265625,-0.999267578125,0.217041015625,-1.1755725190839694,-0.007633587786259542,-1.0076335877862594
1749800347.6059253,0.053466796875,-1.0009765625,0.21240234375,-1.2366412213740459,1.9389312977099236,-1.015267175572519
1749800347.615929,0.056640625,-0.996337890625,0.21435546875,-1.2595419847328244,0.09923664122137404,-1.1145038167938932
1749800347.625914,0.0546875,-0.993408203125,0.205810546875,-1.2213740458015268,-0.1450381679389313,-0.9236641221374046
1749800347.6359127,0.05712890625,-1.000244140625,0.2119140625,-1.1984732824427482,0.061068702290076333,-1.1603053435114503
1749800347.645908,0.056396484375,-0.99853515625,0.211669921875,-1.1755725190839694,0.1984732824427481,-1.2290076335877862
1749800347.6559088,0.0546875,-0.99951171875,0.208251953125,-1.3206106870229009,-0.022900763358778626,-1.1374045801526718
1749800347.6659083,0.0537109375,-1.003662109375,0.213623046875,-1.16793893129771,0.015267175572519083,-1.0
1749800347.6759095,0.061767578125,-0.984619140625,0.1962890625,-1.16793893129771,0.1984732824427481,-1.0
1749800347.685908,0.053955078125,-0.9990234375,0.216552734375,-1.1908396946564885,0.08396946564885496,-0.9770992366412213
1749800347.6959085,0.05224609375,-0.99609375,0.222900390625,-1.0305343511450382,-0.13740458015267176,-0.9618320610687023
1749800347.7059066,0.0556640625,-0.998046875,0.212646484375,-1.3893129770992367,0.15267175572519084,-1.083969465648855
1749800347.7159095,0.051025390625,-1.00341796875,0.205810546875,-1.5114503816793894,-0.2366412213740458,-1.1526717557251909
1749800347.7259054,0.053955078125,-0.99267578125,0.203857421875,-1.1297709923664123,-1.9083969465648856,-1.213740458015267
1749800347.7359076,0.055419921875,-0.9931640625,0.210205078125,-1.2290076335877862,0.0,-1.16793893129771
1749800347.7459176,0.054931640625,-0.995849609375,0.226318359375,-1.2671755725190839,0.183206106870229,-0.9465648854961832
1749800347.7559133,0.04931640625,-1.0048828125,0.191650390625,-1.1374045801526718,0.08396946564885496,-1.0229007633587786
1749800347.7659183,0.055419921875,-0.997802734375,0.21337890625,-1.282442748091603,0.04580152671755725,-1.015267175572519
1749800347.775966,0.055908203125,-0.987060546875,0.21875,-1.1984732824427482,0.03816793893129771,-1.2595419847328244
1749800347.785914,0.050537109375,-1.001220703125,0.21533203125,-1.1755725190839694,0.16030534351145037,-1.0458015267175573
1749800347.7959218,0.05078125,-0.999267578125,0.21533203125,-1.3206106870229009,-0.03816793893129771,-0.9847328244274809
1749800347.8059072,0.056640625,-1.00244140625,0.21240234375,-1.1603053435114503,0.29770992366412213,-1.1068702290076335
1749800347.8159091,0.05029296875,-1.00634765625,0.21142578125,-1.3435114503816794,0.05343511450381679,-1.1297709923664123
1749800347.825907,0.055908203125,-0.994873046875,0.20458984375,-1.2061068702290076,0.11450381679389313,-1.0916030534351144
1749800347.8359118,0.052734375,-1.0009765625,0.2158203125,-1.1526717557251909,0.007633587786259542,-1.1068702290076335
1749800347.8459084,0.048828125,-1.011962890625,0.2158203125,-1.3282442748091603,0.030534351145038167,-1.1374045801526718
1749800347.8559256,0.052001953125,-1.001220703125,0.2138671875,-1.3740458015267176,0.183206106870229,-1.083969465648855
1749800347.8660269,0.05224609375,-1.00244140625,0.203369140625,-1.3435114503816794,0.17557251908396945,-1.1145038167938932
1749800347.875913,0.05712890625,-0.995361328125,0.211669921875,-1.3206106870229009,-0.09923664122137404,-1.083969465648855
1749800347.8859181,0.05224609375,-1.00146484375,0.203125,-1.1526717557251909,0.16793893129770993,-1.083969465648855
1749800347.896007,0.05908203125,-0.99560546875,0.212646484375,-1.1603053435114503,0.04580152671755725,-0.9007633587786259
1749800347.9059062,0.047607421875,-0.989013671875,0.19384765625,-1.366412213740458,0.061068702290076333,-1.0458015267175573
1749800347.9159076,0.05615234375,-1.01513671875,0.214599609375,-1.2671755725190839,0.061068702290076333,-0.9923664122137404
1749800347.9259484,0.054931640625,-1.00146484375,0.208984375,-1.3358778625954197,0.16030534351145037,-0.9541984732824428
1749800347.9359138,0.05126953125,-0.998779296875,0.208251953125,-1.297709923664122,-0.06870229007633588,-1.015267175572519
1749800347.9459236,0.055908203125,-0.99951171875,0.21484375,-1.282442748091603,0.10687022900763359,-1.015267175572519
1749800347.9559405,0.0517578125,-1.00244140625,0.211181640625,-1.2671755725190839,0.061068702290076333,-1.083969465648855
1749800347.9659085,0.056640625,-0.996826171875,0.2041015625,-1.1908396946564885,0.0,-0.9847328244274809
1749800347.9759238,0.0361328125,-1.01318359375,0.21435546875,-1.2213740458015268,0.183206106870229,-1.0687022900763359
1749800347.985928,0.037353515625,-1.015625,0.217529296875,-1.0610687022900764,0.12213740458015267,-1.0458015267175573
1749800347.995909,0.05224609375,-0.997802734375,0.2138671875,-1.183206106870229,0.16030534351145037,-1.0229007633587786
1749800348.0059075,0.051025390625,-0.9970703125,0.217529296875,-1.2748091603053435,1.9389312977099236,-1.0458015267175573
1749800348.015909,0.05078125,-1.00341796875,0.217041015625,-1.2748091603053435,0.1450381679389313,-1.1526717557251909
1749800348.0259073,0.056396484375,-0.9990234375,0.208740234375,-1.183206106870229,-0.08396946564885496,-1.099236641221374
1749800348.0359285,0.05322265625,-0.993896484375,0.21044921875,-1.2290076335877862,0.11450381679389313,-1.0534351145038168
1749800348.0461557,0.052001953125,-1.0068359375,0.216064453125,-1.2595419847328244,0.1297709923664122,-1.0
1749800348.0559177,0.048828125,-0.99951171875,0.21142578125,-1.1374045801526718,0.1297709923664122,-1.0458015267175573
1749800348.0659153,0.056396484375,-0.993408203125,0.215576171875,-1.4274809160305344,0.015267175572519083,-1.0458015267175573
1749800348.0760224,0.056396484375,-1.00439453125,0.210693359375,-1.1374045801526718,1.9389312977099236,-1.0763358778625953
1749800348.0859082,0.052734375,-1.0029296875,0.21337890625,-1.381679389312977,0.04580152671755725,-1.183206106870229
1749800348.0959036,0.054443359375,-0.99560546875,0.218994140625,-1.16793893129771,-0.05343511450381679,-1.1145038167938932
1749800348.105907,0.052490234375,-0.99609375,0.21044921875,-1.1908396946564885,0.05343511450381679,-0.916030534351145
1749800348.1159098,0.05517578125,-0.997314453125,0.21533203125,-1.1374045801526718,0.12213740458015267,-1.015267175572519
1749800348.1259074,0.055908203125,-0.99365234375,0.213134765625,-1.1145038167938932,-0.08396946564885496,-0.9847328244274809
1749800348.135908,0.056884765625,-0.99853515625,0.220458984375,-1.2442748091603053,0.11450381679389313,-1.1145038167938932
1749800348.1459084,0.05322265625,-1.000732421875,0.218505859375,-1.282442748091603,-1.9236641221374047,-1.015267175572519
1749800348.1559224,0.060302734375,-0.998779296875,0.21044921875,-1.450381679389313,0.12213740458015267,-1.1450381679389312
1749800348.1659212,0.052490234375,-0.999755859375,0.21728515625,-1.2671755725190839,-0.030534351145038167,-1.1374045801526718
1749800348.175952,0.052001953125,-0.99853515625,0.208740234375,-1.2442748091603053,0.08396946564885496,-1.1145038167938932
1749800348.185912,0.057373046875,-1.004150390625,0.217529296875,-1.1145038167938932,-0.03816793893129771,-1.0916030534351144
1749800348.195908,0.05078125,-1.0029296875,0.21142578125,-1.213740458015267,0.08396946564885496,-0.9770992366412213
1749800348.2059066,0.04736328125,-1.00048828125,0.212158203125,-1.282442748091603,0.2900763358778626,-1.099236641221374
1749800348.2159083,0.058349609375,-0.995361328125,0.211181640625,-1.213740458015267,0.08396946564885496,-0.9236641221374046
1749800348.2259073,0.056640625,-0.9970703125,0.2099609375,-1.1908396946564885,0.015267175572519083,-1.0534351145038168
1749800348.2359087,0.06005859375,-1.00146484375,0.209716796875,-1.1755725190839694,0.15267175572519084,-0.9923664122137404
1749800348.2459078,0.051025390625,-1.01416015625,0.214111328125,-1.381679389312977,-1.9465648854961832,-1.1145038167938932
1749800348.2559328,0.053466796875,-0.998779296875,0.216552734375,-1.2213740458015268,-0.03816793893129771,-1.1145038167938932
1749800348.2683687,0.052490234375,-0.999267578125,0.203857421875,-1.282442748091603,0.04580152671755725,-1.0458015267175573
1749800348.2814777,0.049560546875,-1.0078125,0.218505859375,-1.3206106870229009,-1.9236641221374047,-1.0916030534351144
1749800348.2943604,0.05322265625,-1.001220703125,0.216064453125,-1.2595419847328244,-0.06870229007633588,-1.1374045801526718
1749800348.3076267,0.051025390625,-0.995361328125,0.2080078125,-1.251908396946565,0.06870229007633588,-1.0381679389312977
1749800348.3239973,0.055419921875,-1.01416015625,0.218994140625,-1.3282442748091603,-1.9541984732824427,-1.015267175572519
1749800348.3373675,0.055419921875,-0.9853515625,0.20751953125,-1.2442748091603053,1.9389312977099236,-1.015267175572519
1749800348.3512602,0.059814453125,-0.99609375,0.21337890625,-1.2061068702290076,1.9236641221374047,-0.9618320610687023
1749800348.360147,0.0576171875,-0.99755859375,0.203125,-1.3282442748091603,1.916030534351145,-0.8931297709923665
1749800348.3687353,0.056396484375,-0.984619140625,0.217529296875,-1.2442748091603053,0.10687022900763359,-1.015267175572519
1749800348.3772752,0.054931640625,-1.001953125,0.208984375,-1.4045801526717556,0.10687022900763359,-1.0610687022900764
1749800348.3858266,0.035888671875,-1.0009765625,0.20849609375,-1.1603053435114503,0.13740458015267176,-1.015267175572519
1749800348.3943412,0.057861328125,-1.003662109375,0.2177734375,-1.16793893129771,0.1297709923664122,-1.0458015267175573
1749800348.4040456,0.0517578125,-0.98779296875,0.211181640625,-1.0763358778625953,-0.1297709923664122,-1.0305343511450382
1749800348.4127052,0.0556640625,-0.98974609375,0.206298828125,-1.183206106870229,-0.04580152671755725,-1.0610687022900764
1749800348.4232109,0.05224609375,-1.013427734375,0.219482421875,-1.297709923664122,-1.916030534351145,-1.083969465648855
1749800348.4319248,0.048095703125,-1.012939453125,0.214111328125,-1.213740458015267,-0.2748091603053435,-0.816793893129771
1749800348.4405046,0.05078125,-1.00537109375,0.212158203125,-1.282442748091603,0.1297709923664122,-1.1603053435114503
1749800348.449144,0.0537109375,-1.015380859375,0.20947265625,-1.282442748091603,0.022900763358778626,-1.0916030534351144
1749800348.4595163,0.04931640625,-0.985595703125,0.209716796875,-1.4198473282442747,-0.015267175572519083,-1.1068702290076335
1749800348.4698317,0.0556640625,-0.9990234375,0.213623046875,-1.0305343511450382,0.07633587786259542,-1.015267175572519
1749800348.4817963,0.062255859375,-1.003173828125,0.21875,-1.0534351145038168,-1.9236641221374047,-0.9541984732824428
1749800348.4920201,0.05859375,-0.987548828125,0.205810546875,-1.1374045801526718,0.0,-0.9236641221374046
1749800348.5021691,0.059814453125,-0.98974609375,0.2060546875,-1.099236641221374,0.12213740458015267,-1.1450381679389312
1749800348.5123572,0.0546875,-0.998046875,0.2158203125,-1.0610687022900764,1.9236641221374047,-1.1984732824427482
1749800348.523853,0.05908203125,-1.00341796875,0.220947265625,-1.3358778625954197,0.16793893129770993,-1.0381679389312977
1749800348.534399,0.052001953125,-1.01416015625,0.211181640625,-1.2748091603053435,0.05343511450381679,-1.0534351145038168
1749800348.5467658,0.05810546875,-1.0,0.218505859375,-1.2442748091603053,0.06870229007633588,-0.8473282442748091
1749800348.5572736,0.0498046875,-1.0126953125,0.216796875,-1.3740458015267176,-1.8625954198473282,-1.0687022900763359
1749800348.567497,0.05126953125,-0.997314453125,0.22900390625,-1.3587786259541985,0.09923664122137404,-1.015267175572519
1749800348.5790243,0.05224609375,-1.01123046875,0.21630859375,-1.251908396946565,0.1450381679389313,-0.9465648854961832
1749800348.5892737,0.05224609375,-0.999267578125,0.20703125,-1.099236641221374,0.1297709923664122,-0.9541984732824428
1749800348.5996332,0.05517578125,-1.000244140625,0.211669921875,-1.2290076335877862,0.11450381679389313,-0.9465648854961832
1749800348.6104572,0.05419921875,-0.98681640625,0.21337890625,-1.1068702290076335,-1.8778625954198473,-1.1450381679389312
1749800348.622017,0.056884765625,-1.014892578125,0.21142578125,-1.2442748091603053,1.9083969465648856,-1.1145038167938932
1749800348.6332388,0.0546875,-0.99560546875,0.2265625,-1.2061068702290076,0.16030534351145037,-1.0687022900763359
1749800348.6485372,0.047607421875,-0.99609375,0.21044921875,-1.1145038167938932,0.1297709923664122,-0.8778625954198473
1749800348.6594856,0.053466796875,-0.9990234375,0.21240234375,-1.297709923664122,0.0,-1.1221374045801527
1749800348.670432,0.05859375,-1.000244140625,0.21826171875,-1.1603053435114503,0.1297709923664122,-1.0687022900763359
1749800348.6820626,0.05224609375,-0.993896484375,0.2099609375,-1.16793893129771,-0.03816793893129771,-1.1526717557251909
1749800348.6906662,0.060791015625,-1.00927734375,0.213134765625,-1.0,-0.03816793893129771,-1.0229007633587786
1749800348.6992002,0.054931640625,-1.0,0.2119140625,-0.9923664122137404,1.8778625954198473,-1.0610687022900764
1749800348.7079237,0.049072265625,-0.99462890625,0.207763671875,-1.1908396946564885,0.015267175572519083,-1.0687022900763359
1749800348.7164679,0.056396484375,-0.984619140625,0.217529296875,-1.0381679389312977,-0.007633587786259542,-1.16793893129771
1749800348.725021,0.05078125,-0.993408203125,0.211669921875,-1.1145038167938932,0.11450381679389313,-0.9923664122137404
1749800348.733678,0.05615234375,-0.993896484375,0.21826171875,-1.1145038167938932,0.05343511450381679,-0.8396946564885496
1749800348.742322,0.057373046875,-1.009521484375,0.203125,-1.4122137404580153,-1.9541984732824427,-1.0458015267175573
1749800348.750921,0.061279296875,-1.013671875,0.217529296875,-1.1526717557251909,-0.12213740458015267,-1.0458015267175573
1749800348.760919,0.056640625,-0.99951171875,0.20849609375,-1.0305343511450382,0.0916030534351145,-1.0381679389312977
1749800348.771097,0.052734375,-1.002685546875,0.208251953125,-1.1984732824427482,0.22900763358778625,-1.0763358778625953
1749800348.7812681,0.049560546875,-0.98681640625,0.2177734375,-1.2213740458015268,1.916030534351145,-0.9923664122137404
1749800348.7920976,0.05126953125,-1.001220703125,0.205322265625,-1.0076335877862594,0.03816793893129771,-1.1068702290076335
1749800348.8025458,0.06201171875,-1.00634765625,0.209716796875,-1.3129770992366412,0.030534351145038167,-1.2061068702290076
1749800348.814022,0.054443359375,-0.99951171875,0.216552734375,-1.3053435114503817,0.04580152671755725,-1.0610687022900764
1749800348.8248549,0.054443359375,-0.98974609375,0.2158203125,-1.1603053435114503,0.06870229007633588,-1.0381679389312977
1749800348.8349771,0.053466796875,-1.0048828125,0.212646484375,-1.5114503816793894,0.061068702290076333,-1.1221374045801527
1749800348.8454127,0.050537109375,-0.986572265625,0.2158203125,-1.099236641221374,-1.9312977099236641,-0.9618320610687023
1749800348.8559995,0.05224609375,-0.9970703125,0.21435546875,-1.2366412213740459,0.2366412213740458,-1.0534351145038168
1749800348.8672066,0.056396484375,-1.0126953125,0.209228515625,-1.1908396946564885,0.06870229007633588,-1.0381679389312977
1749800348.878555,0.050048828125,-1.000732421875,0.2138671875,-1.3129770992366412,0.07633587786259542,-0.9923664122137404
1749800348.889911,0.048583984375,-1.001220703125,0.216796875,-1.1068702290076335,0.07633587786259542,-1.0305343511450382
1749800348.9011128,0.052734375,-0.995849609375,0.213623046875,-1.4122137404580153,0.1297709923664122,-0.9007633587786259
1749800348.9123015,0.05810546875,-1.00048828125,0.208740234375,-1.0916030534351144,-1.9083969465648856,-0.9770992366412213
1749800348.9237924,0.05126953125,-1.013427734375,0.208740234375,-1.1603053435114503,-1.916030534351145,-1.213740458015267
1749800348.9349635,0.04931640625,-0.998046875,0.207763671875,-1.1603053435114503,0.1297709923664122,-0.9541984732824428
1749800348.9468021,0.05078125,-0.999267578125,0.21142578125,-1.1145038167938932,0.007633587786259542,-0.9618320610687023
1749800348.958374,0.05517578125,-0.98828125,0.207275390625,-1.1908396946564885,1.9083969465648856,-1.1755725190839694
1749800348.9720426,0.054443359375,-1.01513671875,0.199462890625,-1.2442748091603053,-1.8473282442748091,-1.0381679389312977
1749800348.9837587,0.0546875,-0.99755859375,0.203125,-1.1908396946564885,0.08396946564885496,-1.1526717557251909
1749800348.9956365,0.053466796875,-0.999755859375,0.203369140625,-1.2290076335877862,0.22137404580152673,-1.0763358778625953
1749800349.0099182,0.057861328125,-0.996826171875,0.2080078125,-1.1450381679389312,-0.15267175572519084,-1.1374045801526718
1749800349.0216486,0.055908203125,-0.996826171875,0.219482421875,-1.2213740458015268,0.16793893129770993,-1.16793893129771
1749800349.0332062,0.053955078125,-1.01318359375,0.216552734375,-1.213740458015267,0.08396946564885496,-1.099236641221374
1749800349.046059,0.058837890625,-0.9951171875,0.206787109375,-1.1984732824427482,-0.0916030534351145,-1.183206106870229
1749800349.0556808,0.05859375,-0.998779296875,0.211669921875,-1.16793893129771,-0.12213740458015267,-0.9541984732824428
1749800349.061218,0.04833984375,-0.995849609375,0.204833984375,-1.3282442748091603,0.1450381679389313,-1.0610687022900764
1749800349.0668025,0.0576171875,-1.005126953125,0.21337890625,-1.3740458015267176,0.06870229007633588,-1.0687022900763359
1749800349.0723028,0.0478515625,-1.0068359375,0.2080078125,-1.1755725190839694,0.3053435114503817,-1.1603053435114503
1749800349.0777988,0.0546875,-0.998291015625,0.2119140625,-1.3206106870229009,1.9236641221374047,-1.2290076335877862
1749800349.083301,0.054443359375,-1.004638671875,0.210693359375,-1.0916030534351144,0.022900763358778626,-1.1068702290076335
1749800349.0888171,0.056396484375,-1.004150390625,0.210205078125,-1.2061068702290076,0.07633587786259542,-1.1755725190839694
1749800349.0943115,0.054443359375,-0.99853515625,0.213134765625,-1.2442748091603053,0.20610687022900764,-1.0534351145038168
1749800349.099831,0.056396484375,-0.99951171875,0.205322265625,-1.2442748091603053,0.13740458015267176,-1.0076335877862594
1749800349.105341,0.049560546875,-0.996337890625,0.216064453125,-1.1984732824427482,0.1297709923664122,-1.0305343511450382
1749800349.1108363,0.0595703125,-0.999267578125,0.2216796875,-1.2290076335877862,-0.09923664122137404,-1.015267175572519
1749800349.1163247,0.0498046875,-1.010009765625,0.21533203125,-1.3206106870229009,-0.03816793893129771,-0.9847328244274809
1749800349.1218128,0.051025390625,-0.99609375,0.215087890625,-1.1526717557251909,0.11450381679389313,-1.1221374045801527
1749800349.1273007,0.05615234375,-0.997802734375,0.208984375,-1.2595419847328244,-0.061068702290076333,-1.1450381679389312
1749800349.1359096,0.053955078125,-1.00048828125,0.216064453125,-1.3053435114503817,-0.10687022900763359,-1.183206106870229
1749800349.1459076,0.05322265625,-0.998779296875,0.213134765625,-1.1755725190839694,0.06870229007633588,-0.9923664122137404
1749800349.155908,0.054443359375,-1.005126953125,0.21826171875,-1.4198473282442747,0.007633587786259542,-1.1221374045801527
1749800349.1659071,0.054931640625,-1.001220703125,0.2177734375,-1.183206106870229,1.9083969465648856,-1.1603053435114503
1749800349.175906,0.055908203125,-1.015380859375,0.216796875,-1.1221374045801527,-1.9312977099236641,-0.9618320610687023
1749800349.1859071,0.05908203125,-1.000244140625,0.219482421875,-1.1603053435114503,-0.03816793893129771,-0.9770992366412213
1749800349.1959069,0.056640625,-0.99462890625,0.214111328125,-1.2366412213740459,1.9312977099236641,-1.0381679389312977
1749800349.2059073,0.052001953125,-1.000732421875,0.20361328125,-1.2061068702290076,0.0916030534351145,-1.0381679389312977
1749800349.2159078,0.050048828125,-1.00048828125,0.221435546875,-1.2061068702290076,0.11450381679389313,-1.1374045801526718
1749800349.225907,0.057373046875,-1.0048828125,0.213134765625,-1.1374045801526718,0.04580152671755725,-1.0763358778625953
1749800349.2359025,0.05712890625,-0.99951171875,0.2158203125,-1.3358778625954197,0.1297709923664122,-1.0
1749800349.245907,0.05078125,-0.99365234375,0.205810546875,-1.183206106870229,-0.007633587786259542,-1.083969465648855
1749800349.2559114,0.053466796875,-0.995849609375,0.2158203125,-1.3053435114503817,0.015267175572519083,-1.0
1749800349.2659075,0.05224609375,-1.005126953125,0.21728515625,-1.0687022900763359,-0.061068702290076333,-0.9923664122137404
1749800349.2759068,0.06103515625,-0.997314453125,0.212646484375,-1.251908396946565,0.09923664122137404,-1.1145038167938932
1749800349.2859063,0.053955078125,-1.00341796875,0.209716796875,-1.251908396946565,0.04580152671755725,-1.2213740458015268
1749800349.2959085,0.052001953125,-0.999755859375,0.21044921875,-1.2671755725190839,-0.061068702290076333,-0.9618320610687023
1749800349.3059075,0.057861328125,-0.99462890625,0.20947265625,-1.2061068702290076,-1.9465648854961832,-0.9770992366412213
1749800349.3159084,0.048095703125,-1.001708984375,0.210205078125,-1.2900763358778626,-0.022900763358778626,-1.0610687022900764
1749800349.3259065,0.056640625,-0.993896484375,0.2177734375,-1.1984732824427482,0.10687022900763359,-1.0229007633587786
1749800349.3359077,0.0537109375,-1.01513671875,0.21533203125,-1.1603053435114503,0.07633587786259542,-1.3282442748091603
1749800349.3459065,0.048583984375,-0.99951171875,0.21728515625,-1.3511450381679388,-0.0916030534351145,-1.0916030534351144
1749800349.355908,0.056884765625,-0.997314453125,0.21337890625,-1.3282442748091603,-0.06870229007633588,-1.1145038167938932
1749800349.3659096,0.047607421875,-1.001953125,0.217041015625,-1.1908396946564885,0.08396946564885496,-1.2213740458015268
1749800349.3759036,0.055419921875,-0.99755859375,0.208740234375,-1.183206106870229,0.05343511450381679,-0.9694656488549618
1749800349.3859065,0.05224609375,-1.002685546875,0.21142578125,-1.1908396946564885,0.13740458015267176,-1.0687022900763359
1749800349.3959103,0.052001953125,-1.000732421875,0.219482421875,-1.282442748091603,0.2366412213740458,-1.183206106870229
1749800349.4059072,0.053955078125,-0.997314453125,0.23388671875,-1.3053435114503817,-1.9312977099236641,-1.0076335877862594
1749800349.415909,0.053955078125,-0.985107421875,0.207275390625,-1.3053435114503817,0.10687022900763359,-0.9770992366412213
1749800349.4259062,0.057373046875,-0.998779296875,0.20849609375,-1.2213740458015268,0.030534351145038167,-0.916030534351145
1749800349.4359074,0.052001953125,-1.001220703125,0.216552734375,-1.3740458015267176,0.030534351145038167,-1.083969465648855
1749800349.4459074,0.0498046875,-1.0029296875,0.21142578125,-1.297709923664122,0.022900763358778626,-1.1603053435114503
1749800349.4559073,0.0615234375,-0.9970703125,0.2158203125,-1.2290076335877862,0.015267175572519083,-1.0610687022900764
1749800349.4659073,0.054931640625,-0.998291015625,0.217529296875,-1.297709923664122,1.9312977099236641,-1.015267175572519
1749800349.4759088,0.05224609375,-1.014404296875,0.2119140625,-1.1908396946564885,0.03816793893129771,-1.2213740458015268
1749800349.4859064,0.059326171875,-0.99853515625,0.203857421875,-1.2900763358778626,1.916030534351145,-1.0610687022900764
1749800349.495908,0.051513671875,-0.996337890625,0.2099609375,-1.1755725190839694,1.8931297709923665,-0.9618320610687023
1749800349.5059102,0.0546875,-0.9970703125,0.211669921875,-1.2213740458015268,0.09923664122137404,-1.1145038167938932
1749800349.5159101,0.0576171875,-0.9990234375,0.2216796875,-1.1984732824427482,-1.9312977099236641,-1.0076335877862594
1749800349.5259075,0.052978515625,-0.996826171875,0.205078125,-1.381679389312977,-1.9465648854961832,-1.0763358778625953
1749800349.5359085,0.052490234375,-0.9990234375,0.208740234375,-1.2442748091603053,0.1450381679389313,-0.9847328244274809
1749800349.545907,0.052490234375,-1.00048828125,0.21142578125,-1.2366412213740459,-0.09923664122137404,-0.9389312977099237
1749800349.5559084,0.0517578125,-0.990966796875,0.21533203125,-1.183206106870229,-0.07633587786259542,-0.8854961832061069
1749800349.5659096,0.052978515625,-0.986083984375,0.211181640625,-1.0458015267175573,0.04580152671755725,-1.0381679389312977
1749800349.5759165,0.054443359375,-1.012939453125,0.217041015625,-1.183206106870229,0.08396946564885496,-1.0
1749800349.5859268,0.062744140625,-1.002197265625,0.217529296875,-1.1450381679389312,0.022900763358778626,-1.0916030534351144
1749800349.5959594,0.053955078125,-0.986572265625,0.212646484375,-1.2900763358778626,-0.1450381679389313,-1.1297709923664123
1749800349.6059165,0.052734375,-1.013916015625,0.2158203125,-1.1603053435114503,0.022900763358778626,-1.0610687022900764
1749800349.6159565,0.05859375,-0.998291015625,0.212890625,-1.2290076335877862,0.20610687022900764,-1.1526717557251909
1749800349.6259196,0.046875,-0.99755859375,0.205078125,-1.282442748091603,0.1297709923664122,-1.0687022900763359
1749800349.635911,0.05078125,-1.013916015625,0.214599609375,-1.2748091603053435,0.12213740458015267,-1.0763358778625953
1749800349.6459076,0.0556640625,-1.01318359375,0.221923828125,-1.0916030534351144,-0.0916030534351145,-1.1221374045801527
1749800349.65591,0.050537109375,-0.9931640625,0.203857421875,-1.2442748091603053,-0.04580152671755725,-1.0916030534351144
1749800349.6659067,0.05517578125,-0.99365234375,0.21240234375,-1.282442748091603,0.0,-0.9541984732824428
1749800349.675909,0.051513671875,-1.001220703125,0.21630859375,-1.2442748091603053,0.20610687022900764,-1.1450381679389312
1749800349.6859057,0.05126953125,-1.000244140625,0.20751953125,-1.1068702290076335,0.09923664122137404,-0.8473282442748091
1749800349.695908,0.05322265625,-0.99853515625,0.207275390625,-1.3511450381679388,0.022900763358778626,-1.099236641221374
1749800349.7059069,0.06103515625,-1.00537109375,0.21484375,-1.2442748091603053,1.900763358778626,-1.0305343511450382
1749800349.715913,0.055419921875,-0.99951171875,0.2158203125,-1.4198473282442747,0.1297709923664122,-0.9618320610687023
1749800349.7259085,0.053955078125,-0.997802734375,0.194091796875,-1.1984732824427482,-1.916030534351145,-1.0305343511450382
1749800349.7359085,0.0537109375,-1.01416015625,0.203125,-1.183206106870229,0.10687022900763359,-1.0
1749800349.7459068,0.05615234375,-0.996337890625,0.214599609375,-1.1374045801526718,-0.12213740458015267,-1.1450381679389312
1749800349.755908,0.052001953125,-1.00244140625,0.216796875,-1.297709923664122,0.06870229007633588,-1.0534351145038168
1749800349.7659073,0.053955078125,-0.99755859375,0.2109375,-1.2748091603053435,0.07633587786259542,-1.0
1749800349.775907,0.055419921875,-0.9990234375,0.220947265625,-1.465648854961832,-1.9389312977099236,-1.2061068702290076
1749800349.7859068,0.05029296875,-0.997802734375,0.210205078125,-1.1526717557251909,-0.015267175572519083,-1.0458015267175573
1749800349.795908,0.052490234375,-1.002197265625,0.215576171875,-1.183206106870229,0.05343511450381679,-1.083969465648855
1749800349.8059068,0.056396484375,-0.9853515625,0.232421875,-1.1450381679389312,-1.9389312977099236,-1.015267175572519
1749800349.8159072,0.048583984375,-0.995361328125,0.210205078125,-1.3435114503816794,-1.9541984732824427,-1.1984732824427482
1749800349.8259075,0.0546875,-1.00146484375,0.21240234375,-1.282442748091603,0.0916030534351145,-1.0610687022900764
1749800349.8359072,0.05517578125,-0.991455078125,0.214599609375,-1.0458015267175573,0.13740458015267176,-1.0381679389312977
1749800349.8459077,0.05615234375,-0.999755859375,0.21728515625,-1.1908396946564885,1.916030534351145,-1.1145038167938932
1749800349.8559074,0.05712890625,-0.999267578125,0.21044921875,-1.213740458015267,-0.007633587786259542,-1.0534351145038168
1749800349.8659062,0.04931640625,-0.998046875,0.20654296875,-1.0076335877862594,-0.16793893129770993,-1.015267175572519
1749800349.8759072,0.04833984375,-1.0029296875,0.20458984375,-1.1068702290076335,-0.12213740458015267,-1.1145038167938932
1749800349.8859093,0.060302734375,-0.996826171875,0.211181640625,-1.3206106870229009,-0.061068702290076333,-1.0229007633587786
1749800349.8959038,0.0498046875,-1.0146484375,0.208740234375,-1.083969465648855,-0.08396946564885496,-1.0458015267175573
1749800349.9059064,0.05517578125,-0.997314453125,0.213134765625,-1.3282442748091603,0.06870229007633588,-1.0229007633587786
1749800349.9159079,0.055419921875,-1.001953125,0.218017578125,-1.1221374045801527,0.26717557251908397,-1.0305343511450382
1749800349.9259057,0.049560546875,-0.99609375,0.2099609375,-1.2213740458015268,0.10687022900763359,-1.1068702290076335
1749800349.9359071,0.056396484375,-1.000244140625,0.215087890625,-1.1908396946564885,-0.061068702290076333,-0.9541984732824428
1749800349.9459133,0.055419921875,-0.98681640625,0.211669921875,-1.213740458015267,-1.9541984732824427,-1.0687022900763359
1749800349.9559073,0.05126953125,-0.99658203125,0.216064453125,-1.1984732824427482,0.030534351145038167,-1.1297709923664123
1749800349.965907,0.052001953125,-0.985595703125,0.21533203125,-1.2748091603053435,0.12213740458015267,-1.1603053435114503
1749800349.975912,0.052978515625,-1.00048828125,0.226318359375,-1.2061068702290076,0.12213740458015267,-1.0305343511450382
1749800349.9859068,0.047607421875,-0.996337890625,0.211669921875,-1.3206106870229009,0.3053435114503817,-1.083969465648855
1749800349.9959078,0.0517578125,-0.998291015625,0.210693359375,-1.3358778625954197,1.9083969465648856,-1.0458015267175573
1749800350.005906,0.049072265625,-0.995361328125,0.209716796875,-1.1297709923664123,-0.09923664122137404,-1.1068702290076335
1749800350.0159078,0.04833984375,-1.00390625,0.216552734375,-1.1450381679389312,0.15267175572519084,-0.9847328244274809
1749800350.0259058,0.060546875,-0.997802734375,0.216796875,-1.2595419847328244,-0.06870229007633588,-0.8854961832061069
1749800350.0359144,0.0498046875,-1.001708984375,0.205078125,-1.083969465648855,-0.19083969465648856,-1.3206106870229009
1749800350.0459065,0.0498046875,-0.98779296875,0.211669921875,-1.2290076335877862,-0.030534351145038167,-1.083969465648855
1749800350.0559075,0.060791015625,-0.98779296875,0.21044921875,-1.2061068702290076,-0.007633587786259542,-1.083969465648855
1749800350.0659037,0.052978515625,-0.985107421875,0.20703125,-1.0305343511450382,1.9236641221374047,-1.0229007633587786
1749800350.0759056,0.055908203125,-0.997314453125,0.214111328125,-1.2748091603053435,0.04580152671755725,-1.1221374045801527
1749800350.085906,0.05517578125,-0.995361328125,0.216552734375,-1.2366412213740459,-0.0916030534351145,-0.9389312977099237
1749800350.095906,0.05322265625,-1.001953125,0.2119140625,-1.16793893129771,0.12213740458015267,-1.015267175572519
1749800350.1059053,0.055908203125,-1.0029296875,0.208740234375,-1.1145038167938932,0.022900763358778626,-1.0305343511450382
1749800350.1158674,0.0498046875,-1.003173828125,0.220458984375,-1.1221374045801527,1.916030534351145,-1.0381679389312977
1749800350.1259046,0.0498046875,-0.9853515625,0.210693359375,-1.465648854961832,0.10687022900763359,-1.015267175572519
1749800350.135906,0.052490234375,-1.01513671875,0.2138671875,-1.2442748091603053,0.10687022900763359,-0.8931297709923665
1749800350.1459053,0.060302734375,-0.986572265625,0.21337890625,-1.2366412213740459,1.8931297709923665,-1.0534351145038168
1749800350.1559038,0.052490234375,-0.999755859375,0.215576171875,-1.1068702290076335,1.9083969465648856,-1.16793893129771
1749800350.1659048,0.0537109375,-1.001953125,0.2138671875,-1.213740458015267,0.0916030534351145,-1.0
1749800350.1759055,0.05419921875,-1.000244140625,0.208984375,-1.1526717557251909,0.11450381679389313,-1.083969465648855
1749800350.1859045,0.0517578125,-0.999267578125,0.216064453125,-1.1374045801526718,-1.9389312977099236,-1.0
1749800350.1959062,0.058349609375,-1.001953125,0.2216796875,-1.3053435114503817,-0.06870229007633588,-0.9770992366412213
1749800350.2059045,0.053466796875,-0.998046875,0.225830078125,-1.251908396946565,1.9465648854961832,-1.0534351145038168
1749800350.215906,0.051513671875,-0.9873046875,0.209716796875,-1.297709923664122,0.06870229007633588,-1.1297709923664123
1749800350.2259045,0.057373046875,-0.994140625,0.211669921875,-1.251908396946565,-0.11450381679389313,-1.0610687022900764
1749800350.2359061,0.049072265625,-0.995361328125,0.21044921875,-1.2061068702290076,0.08396946564885496,-1.2290076335877862
1749800350.245904,0.0576171875,-1.001220703125,0.2099609375,-1.4198473282442747,1.8931297709923665,-1.0458015267175573
1749800350.2559063,0.05224609375,-1.000732421875,0.208251953125,-1.2213740458015268,0.030534351145038167,-1.0381679389312977
1749800350.265905,0.0498046875,-0.997314453125,0.207763671875,-1.3282442748091603,0.022900763358778626,-1.0305343511450382
1749800350.275905,0.056396484375,-0.985595703125,0.213134765625,-1.2748091603053435,0.007633587786259542,-1.213740458015267
1749800350.2859051,0.051513671875,-0.99609375,0.2119140625,-1.0916030534351144,0.16030534351145037,-1.1984732824427482
1749800350.2959044,0.050048828125,-0.996337890625,0.209228515625,-1.4351145038167938,1.9465648854961832,-0.9923664122137404
1749800350.3059034,0.05224609375,-0.98779296875,0.216552734375,-1.381679389312977,0.015267175572519083,-1.1068702290076335
1749800350.3159063,0.0576171875,-0.99658203125,0.212890625,-1.1526717557251909,0.03816793893129771,-0.9847328244274809
1749800350.325904,0.05126953125,-1.001220703125,0.2109375,-1.1221374045801527,0.0916030534351145,-1.1984732824427482
1749800350.335906,0.05810546875,-0.999267578125,0.21484375,-1.3511450381679388,-0.030534351145038167,-1.015267175572519
1749800350.3459063,0.055908203125,-1.0029296875,0.201904296875,-1.3053435114503817,0.1297709923664122,-0.9541984732824428
1749800350.3559053,0.053955078125,-1.0009765625,0.21240234375,-1.0,0.22900763358778625,-0.9923664122137404
1749800350.3659043,0.053466796875,-1.01318359375,0.2119140625,-1.2290076335877862,-0.04580152671755725,-0.8702290076335878
1749800350.3758779,0.046875,-1.015625,0.208984375,-1.2442748091603053,0.007633587786259542,-1.0687022900763359
1749800350.385904,0.05908203125,-1.002685546875,0.2099609375,-1.450381679389313,0.007633587786259542,-1.0534351145038168
1749800350.3959053,0.051513671875,-1.005615234375,0.215576171875,-1.16793893129771,0.0916030534351145,-1.2061068702290076
1749800350.4058738,0.052490234375,-1.001953125,0.2041015625,-1.1526717557251909,-0.13740458015267176,-0.916030534351145
1749800350.4159055,0.052490234375,-1.002685546875,0.20458984375,-1.3053435114503817,-0.030534351145038167,-0.9389312977099237
1749800350.425904,0.0576171875,-0.99560546875,0.215576171875,-1.213740458015267,0.030534351145038167,-1.0763358778625953
1749800350.4359062,0.054443359375,-0.987548828125,0.20703125,-1.4198473282442747,0.06870229007633588,-0.9847328244274809
1749800350.4459045,0.0537109375,-1.012939453125,0.2333984375,-1.3587786259541985,0.030534351145038167,-1.0305343511450382
1749800350.4559054,0.048583984375,-0.984619140625,0.2177734375,-1.2595419847328244,0.007633587786259542,-1.0229007633587786
1749800350.4659038,0.053955078125,-0.9970703125,0.210205078125,-1.2213740458015268,0.05343511450381679,-1.183206106870229
1749800350.4759007,0.056884765625,-1.005615234375,0.214111328125,-1.2061068702290076,0.24427480916030533,-0.8931297709923665
1749800350.485905,0.055419921875,-1.000244140625,0.208740234375,-1.183206106870229,0.15267175572519084,-1.1145038167938932
1749800350.4959054,0.04736328125,-0.994873046875,0.216064453125,-1.2442748091603053,-0.1450381679389313,-1.0687022900763359
1749800350.5059047,0.052734375,-0.9970703125,0.2080078125,-1.2290076335877862,-0.11450381679389313,-1.0763358778625953
1749800350.5159056,0.0498046875,-0.99658203125,0.213623046875,-1.3435114503816794,0.0,-0.9618320610687023
1749800350.525903,0.060791015625,-0.9990234375,0.212158203125,-1.366412213740458,0.030534351145038167,-1.1984732824427482
1749800350.535906,0.05078125,-1.01318359375,0.211181640625,-1.2900763358778626,0.09923664122137404,-1.0763358778625953
1749800350.5459068,0.052001953125,-0.99853515625,0.2119140625,-1.1297709923664123,-0.15267175572519084,-1.0381679389312977
1749800350.5559065,0.057373046875,-0.998779296875,0.213623046875,-1.2442748091603053,0.0916030534351145,-0.8931297709923665
1749800350.5659075,0.055908203125,-0.99853515625,0.215576171875,-1.3206106870229009,-0.1297709923664122,-1.2595419847328244
1749800350.5759072,0.052001953125,-0.9970703125,0.21435546875,-1.3969465648854962,-0.08396946564885496,-1.0229007633587786
1749800350.5859103,0.05859375,-0.993896484375,0.213623046875,-1.381679389312977,-1.9312977099236641,-1.1374045801526718
1749800350.5959616,0.05322265625,-1.001220703125,0.215087890625,-1.183206106870229,-0.03816793893129771,-1.015267175572519
1749800350.6059413,0.0546875,-0.999755859375,0.22607421875,-1.3511450381679388,0.07633587786259542,-1.0076335877862594
1749800350.6159241,0.050048828125,-1.001953125,0.2099609375,-1.0534351145038168,0.12213740458015267,-1.0229007633587786
1749800350.6259282,0.04931640625,-1.001708984375,0.2080078125,-1.3511450381679388,1.9465648854961832,-0.9923664122137404
1749800350.6359115,0.052001953125,-1.002685546875,0.20947265625,-1.3206106870229009,0.06870229007633588,-1.0610687022900764
1749800350.6459084,0.0556640625,-1.001708984375,0.214111328125,-1.1450381679389312,-1.8931297709923665,-1.1908396946564885
1749800350.655908,0.05419921875,-0.999755859375,0.216796875,-1.251908396946565,0.183206106870229,-1.1297709923664123
1749800350.6659074,0.052734375,-0.992919921875,0.203857421875,-1.3282442748091603,1.9389312977099236,-1.083969465648855
1749800350.6759083,0.0556640625,-1.004638671875,0.2080078125,-1.297709923664122,0.20610687022900764,-1.0
1749800350.685908,0.05224609375,-0.9990234375,0.207763671875,-1.3358778625954197,0.17557251908396945,-1.1450381679389312
1749800350.6958997,0.051025390625,-0.99560546875,0.21630859375,-1.2671755725190839,-0.07633587786259542,-1.0610687022900764
1749800350.7059076,0.05517578125,-1.00634765625,0.208740234375,-1.1450381679389312,1.9312977099236641,-0.8854961832061069
1749800350.7159073,0.050048828125,-0.9990234375,0.2060546875,-1.1068702290076335,1.9236641221374047,-1.083969465648855
1749800350.7259076,0.053466796875,-1.002197265625,0.209228515625,-1.2442748091603053,-1.8625954198473282,-0.9847328244274809
1749800350.7359092,0.05126953125,-1.0009765625,0.2177734375,-1.1221374045801527,0.015267175572519083,-1.1526717557251909
1749800350.7459068,0.05126953125,-0.99609375,0.211181640625,-1.297709923664122,0.03816793893129771,-1.1450381679389312
1749800350.7559085,0.05322265625,-0.99462890625,0.207763671875,-1.3206106870229009,-0.11450381679389313,-1.1908396946564885
1749800350.7659075,0.056884765625,-1.013427734375,0.208251953125,-1.3435114503816794,-0.1297709923664122,-0.9465648854961832
1749800350.7759228,0.046875,-0.997314453125,0.20947265625,-1.3053435114503817,0.061068702290076333,-1.0
1749800350.7859075,0.052734375,-1.00146484375,0.211181640625,-1.1755725190839694,-0.19083969465648856,-0.9618320610687023
1749800350.795907,0.050537109375,-0.998779296875,0.211181640625,-1.282442748091603,0.022900763358778626,-1.1145038167938932
1749800350.8059075,0.060791015625,-1.006103515625,0.218017578125,-1.4274809160305344,0.08396946564885496,-1.099236641221374
1749800350.8159077,0.0556640625,-0.997802734375,0.211181640625,-1.0305343511450382,-0.10687022900763359,-0.9770992366412213
1749800350.8259075,0.054443359375,-0.999755859375,0.207275390625,-1.183206106870229,0.1450381679389313,-1.1450381679389312
1749800350.8359156,0.055908203125,-0.99560546875,0.21875,-1.3053435114503817,0.0916030534351145,-1.2366412213740459
1749800350.8459084,0.052490234375,-0.996826171875,0.209716796875,-1.1526717557251909,1.9465648854961832,-1.0687022900763359
1749800350.855908,0.05712890625,-0.99560546875,0.2080078125,-1.2671755725190839,0.030534351145038167,-1.1297709923664123
1749800350.8659086,0.05615234375,-0.996337890625,0.214599609375,-1.2290076335877862,0.04580152671755725,-1.1297709923664123
1749800350.8759081,0.0546875,-0.998291015625,0.203125,-1.3587786259541985,0.19083969465648856,-0.8702290076335878
1749800350.8859065,0.053955078125,-1.001708984375,0.208740234375,-1.3053435114503817,0.06870229007633588,-1.2290076335877862
1749800350.8959103,0.0556640625,-1.004150390625,0.203369140625,-1.213740458015267,1.916030534351145,-1.083969465648855
1749800350.905907,0.0478515625,-0.99853515625,0.208984375,-1.4961832061068703,0.1297709923664122,-1.1145038167938932
1749800350.9159071,0.054443359375,-0.997314453125,0.210205078125,-1.1297709923664123,-0.061068702290076333,-1.1145038167938932
1749800350.9259052,0.0615234375,-1.0107421875,0.215087890625,-1.1374045801526718,-0.11450381679389313,-0.9923664122137404
1749800350.9359093,0.057373046875,-0.989501953125,0.203369140625,-1.1908396946564885,-0.08396946564885496,-0.9847328244274809
1749800350.9459126,0.055419921875,-0.998779296875,0.20849609375,-1.2748091603053435,-1.8931297709923665,-1.1068702290076335
1749800350.9559083,0.050537109375,-1.000732421875,0.207275390625,-1.2442748091603053,0.061068702290076333,-1.1068702290076335
1749800350.965907,0.05712890625,-0.997314453125,0.200927734375,-1.282442748091603,-0.022900763358778626,-1.0305343511450382
1749800350.9759114,0.054443359375,-1.000244140625,0.212646484375,-1.1221374045801527,0.08396946564885496,-0.8931297709923665
1749800350.9859073,0.05712890625,-1.00244140625,0.20947265625,-1.251908396946565,0.05343511450381679,-1.083969465648855
1749800350.9959083,0.052978515625,-1.00244140625,0.219482421875,-1.1908396946564885,-0.061068702290076333,-1.1068702290076335
1749800351.0059063,0.05859375,-0.986328125,0.216796875,-1.1984732824427482,0.015267175572519083,-1.1450381679389312
1749800351.015908,0.05419921875,-1.000732421875,0.208740234375,-1.366412213740458,0.1297709923664122,-1.083969465648855
1749800351.0259075,0.053466796875,-1.010986328125,0.20703125,-1.2900763358778626,0.11450381679389313,-1.099236641221374
1749800351.0359106,0.0546875,-0.996337890625,0.210693359375,-1.3435114503816794,0.2824427480916031,-1.1908396946564885
1749800351.0459096,0.053955078125,-1.00146484375,0.214599609375,-1.213740458015267,0.10687022900763359,-1.0
1749800351.055908,0.051025390625,-0.998046875,0.2109375,-1.366412213740458,0.12213740458015267,-1.1297709923664123
1749800351.065907,0.054443359375,-1.005126953125,0.2119140625,-1.1221374045801527,1.9389312977099236,-0.9694656488549618
1749800351.0759077,0.0615234375,-0.991943359375,0.21875,-1.2290076335877862,0.11450381679389313,-1.16793893129771
1749800351.0859082,0.05517578125,-0.9990234375,0.21240234375,-1.2671755725190839,-0.06870229007633588,-1.1450381679389312
1749800351.0959165,0.05517578125,-0.993896484375,0.20947265625,-1.3511450381679388,-0.06870229007633588,-1.0
1749800351.1059046,0.037353515625,-0.99658203125,0.213623046875,-1.213740458015267,0.1984732824427481,-1.083969465648855
1749800351.1159062,0.050537109375,-1.005859375,0.2109375,-1.3206106870229009,0.17557251908396945,-0.9770992366412213
1749800351.1259034,0.051025390625,-0.998046875,0.21337890625,-1.2595419847328244,-0.05343511450381679,-1.0
1749800351.1359067,0.05126953125,-0.99462890625,0.208740234375,-1.1374045801526718,0.06870229007633588,-1.1221374045801527
1749800351.1459048,0.048828125,-0.9951171875,0.216552734375,-1.3206106870229009,0.08396946564885496,-1.015267175572519
1749800351.1559052,0.056884765625,-1.002685546875,0.20654296875,-1.3358778625954197,0.05343511450381679,-1.083969465648855
1749800351.1659045,0.05810546875,-1.004150390625,0.216552734375,-1.2748091603053435,0.07633587786259542,-1.2213740458015268
1749800351.1759064,0.058349609375,-1.00390625,0.21240234375,-0.9236641221374046,-1.9541984732824427,-1.0076335877862594
1749800351.1859045,0.055908203125,-0.985107421875,0.2158203125,-1.3129770992366412,0.24427480916030533,-1.1908396946564885
1749800351.195906,0.05517578125,-1.000732421875,0.20654296875,-1.2061068702290076,-0.03816793893129771,-1.0916030534351144
1749800351.2059035,0.05517578125,-1.003662109375,0.21435546875,-1.3129770992366412,0.19083969465648856,-0.9541984732824428
1749800351.2159057,0.04833984375,-1.0009765625,0.205078125,-1.2442748091603053,0.0,-1.0381679389312977
1749800351.225904,0.05078125,-1.002197265625,0.20751953125,-1.1297709923664123,0.1297709923664122,-1.1526717557251909
1749800351.2359054,0.054931640625,-0.996337890625,0.214111328125,-1.1603053435114503,0.13740458015267176,-1.0229007633587786
1749800351.2459052,0.060302734375,-0.994873046875,0.209716796875,-1.16793893129771,0.15267175572519084,-1.1068702290076335
1749800351.2559063,0.05615234375,-0.9951171875,0.2041015625,-1.2671755725190839,-0.19083969465648856,-1.0305343511450382
1749800351.2659073,0.052490234375,-0.989990234375,0.21142578125,-1.2442748091603053,1.9083969465648856,-1.0534351145038168
1749800351.2759051,0.057861328125,-0.999755859375,0.208740234375,-1.3282442748091603,0.06870229007633588,-1.083969465648855
1749800351.2859054,0.055908203125,-0.99609375,0.2236328125,-1.282442748091603,-0.061068702290076333,-0.9694656488549618
1749800351.295909,0.053955078125,-0.99462890625,0.217529296875,-1.2900763358778626,-0.08396946564885496,-0.9847328244274809
1749800351.3059032,0.05224609375,-1.00146484375,0.204833984375,-1.1603053435114503,0.3282442748091603,-1.0916030534351144
1749800351.3159049,0.05078125,-1.003662109375,0.20947265625,-1.1908396946564885,0.13740458015267176,-1.1755725190839694
1749800351.3258743,0.057373046875,-1.006103515625,0.22216796875,-1.4122137404580153,-0.05343511450381679,-0.8015267175572519
1749800351.3359056,0.052734375,-0.9873046875,0.211181640625,-1.1526717557251909,-0.04580152671755725,-1.0687022900763359
1749800351.3459048,0.054931640625,-0.9853515625,0.2060546875,-1.2213740458015268,-0.11450381679389313,-1.1603053435114503
1749800351.3559,0.050048828125,-1.013671875,0.215087890625,-1.2748091603053435,-0.0916030534351145,-1.015267175572519
1749800351.365904,0.0595703125,-1.00244140625,0.20654296875,-1.3740458015267176,0.05343511450381679,-1.0229007633587786
1749800351.3759055,0.0517578125,-1.00048828125,0.221435546875,-1.381679389312977,-0.061068702290076333,-1.1068702290076335
1749800351.3859046,0.055419921875,-0.9990234375,0.21435546875,-1.0763358778625953,0.24427480916030533,-1.0381679389312977
1749800351.3959064,0.05419921875,-1.002685546875,0.217041015625,-1.3969465648854962,0.08396946564885496,-0.9312977099236641
1749800351.4059048,0.0556640625,-1.0126953125,0.215576171875,-1.1755725190839694,0.030534351145038167,-1.0229007633587786
1749800351.415905,0.047119140625,-0.997314453125,0.216064453125,-1.282442748091603,1.9465648854961832,-1.015267175572519
1749800351.4259045,0.058349609375,-1.012451171875,0.2080078125,-1.1145038167938932,-0.06870229007633588,-1.083969465648855
1749800351.4359066,0.05078125,-0.98779296875,0.211181640625,-1.4198473282442747,0.13740458015267176,-1.0305343511450382
1749800351.4459066,0.052490234375,-1.004150390625,0.206787109375,-1.1145038167938932,-0.09923664122137404,-1.1755725190839694
1749800351.4559054,0.053466796875,-0.997802734375,0.21044921875,-1.2748091603053435,0.15267175572519084,-0.9847328244274809
1749800351.465905,0.050537109375,-0.9970703125,0.21044921875,-1.1755725190839694,-0.03816793893129771,-1.0381679389312977
1749800351.4759057,0.050537109375,-1.00341796875,0.208740234375,-1.213740458015267,0.15267175572519084,-1.015267175572519
1749800351.4859045,0.057861328125,-0.99951171875,0.213134765625,-1.381679389312977,0.015267175572519083,-1.0534351145038168
1749800351.4959052,0.05712890625,-0.99462890625,0.21630859375,-1.3893129770992367,0.33587786259541985,-1.0763358778625953
1749800351.5058753,0.05615234375,-0.99462890625,0.21337890625,-1.0610687022900764,-1.9312977099236641,-1.1068702290076335
1749800351.515909,0.053466796875,-1.002197265625,0.21337890625,-1.2442748091603053,-1.9541984732824427,-0.8702290076335878
1749800351.525907,0.055908203125,-1.001220703125,0.2109375,-1.1908396946564885,0.183206106870229,-0.9618320610687023
1749800351.5359085,0.053466796875,-0.999755859375,0.21142578125,-1.297709923664122,0.1450381679389313,-1.0687022900763359
1749800351.5459073,0.05078125,-1.003173828125,0.215087890625,-1.366412213740458,-1.8702290076335877,-1.1908396946564885
1749800351.5559099,0.06982421875,-0.999755859375,0.21435546875,-1.1984732824427482,0.07633587786259542,-0.9923664122137404
1749800351.5659082,0.056884765625,-1.0009765625,0.20654296875,-1.251908396946565,0.183206106870229,-1.1374045801526718
1749800351.5759084,0.05810546875,-1.001708984375,0.21435546875,-1.282442748091603,1.9312977099236641,-1.0763358778625953
1749800351.585929,0.059326171875,-1.0009765625,0.223388671875,-1.1984732824427482,0.007633587786259542,-1.1145038167938932
1749800351.5960066,0.0556640625,-0.997314453125,0.218017578125,-1.1908396946564885,-0.007633587786259542,-1.1603053435114503
1749800351.6059163,0.0498046875,-0.99658203125,0.21337890625,-1.2366412213740459,0.1297709923664122,-1.0534351145038168
1749800351.615946,0.06201171875,-0.994873046875,0.20947265625,-1.282442748091603,0.07633587786259542,-1.1526717557251909
1749800351.6259196,0.049072265625,-0.999755859375,0.211181640625,-1.3053435114503817,-0.03816793893129771,-0.9923664122137404
1749800351.6359167,0.049072265625,-0.995849609375,0.204833984375,-1.2595419847328244,-0.061068702290076333,-1.1221374045801527
1749800351.6459079,0.0556640625,-0.987060546875,0.209716796875,-1.251908396946565,0.13740458015267176,-1.0763358778625953
1749800351.6559086,0.055908203125,-0.99462890625,0.21142578125,-1.2442748091603053,0.1984732824427481,-1.0916030534351144
1749800351.6659107,0.0546875,-1.000732421875,0.203369140625,-1.251908396946565,-0.08396946564885496,-1.0916030534351144
1749800351.6759093,0.05224609375,-1.001220703125,0.203369140625,-1.282442748091603,0.19083969465648856,-1.0534351145038168
1749800351.6859074,0.0546875,-1.001953125,0.20751953125,-1.2748091603053435,0.015267175572519083,-1.0763358778625953
1749800351.6959066,0.0517578125,-1.001708984375,0.21728515625,-1.1297709923664123,1.8778625954198473,-1.1526717557251909
1749800351.7059069,0.0537109375,-0.99658203125,0.2119140625,-1.282442748091603,0.007633587786259542,-1.0610687022900764
1749800351.7159138,0.05029296875,-0.998046875,0.203125,-1.2900763358778626,-1.9541984732824427,-0.8625954198473282
1749800351.725907,0.056640625,-1.015625,0.2060546875,-1.3206106870229009,0.07633587786259542,-1.0763358778625953
1749800351.7359085,0.048583984375,-0.99462890625,0.210205078125,-1.251908396946565,0.015267175572519083,-1.0305343511450382
1749800351.7459095,0.052978515625,-0.98583984375,0.21044921875,-1.1908396946564885,-0.10687022900763359,-1.0229007633587786
1749800351.7559085,0.053466796875,-0.998291015625,0.21728515625,-1.2900763358778626,0.16793893129770993,-1.0610687022900764
1749800351.765909,0.060302734375,-0.99560546875,0.214111328125,-1.282442748091603,0.07633587786259542,-1.16793893129771
1749800351.7759087,0.05615234375,-1.005126953125,0.209716796875,-1.1755725190839694,0.15267175572519084,-1.0
1749800351.785906,0.054443359375,-1.00048828125,0.20166015625,-1.183206106870229,0.03816793893129771,-1.0687022900763359
1749800351.7959082,0.054443359375,-1.00146484375,0.220703125,-1.1221374045801527,1.9312977099236641,-1.0076335877862594
1749800351.8059113,0.0498046875,-1.001953125,0.211669921875,-1.3282442748091603,0.11450381679389313,-0.8473282442748091
1749800351.8159056,0.0498046875,-0.99365234375,0.20556640625,-1.3282442748091603,0.07633587786259542,-1.1603053435114503
1749800351.8259072,0.060302734375,-0.984619140625,0.21435546875,-1.1984732824427482,0.06870229007633588,-1.0687022900763359
1749800351.8359082,0.049560546875,-1.003662109375,0.207763671875,-1.2671755725190839,0.04580152671755725,-1.0305343511450382
1749800351.8459086,0.06103515625,-1.002197265625,0.206787109375,-1.1603053435114503,0.07633587786259542,-1.1526717557251909
1749800351.8559084,0.05419921875,-0.996337890625,0.21630859375,-1.3053435114503817,0.061068702290076333,-1.099236641221374
1749800351.8659074,0.05615234375,-0.998046875,0.209716796875,-1.099236641221374,-1.9312977099236641,-1.083969465648855
1749800351.875908,0.0546875,-1.00390625,0.21337890625,-1.2061068702290076,0.10687022900763359,-0.9465648854961832
1749800351.8859062,0.052978515625,-0.995849609375,0.211181640625,-1.1450381679389312,-0.1297709923664122,-1.1221374045801527
1749800351.8959038,0.054931640625,-1.01318359375,0.217041015625,-1.1068702290076335,0.17557251908396945,-1.1755725190839694
1749800351.9059062,0.05810546875,-0.985107421875,0.215087890625,-1.4427480916030535,0.007633587786259542,-1.0305343511450382
1749800351.9159107,0.06103515625,-1.0009765625,0.211669921875,-1.282442748091603,0.0,-1.1450381679389312
1749800351.9259067,0.048583984375,-1.000732421875,0.2138671875,-1.1068702290076335,-0.04580152671755725,-1.083969465648855
1749800351.9359074,0.0498046875,-1.002197265625,0.211181640625,-1.0229007633587786,-1.9465648854961832,-1.1450381679389312
1749800351.9459138,0.055419921875,-0.997314453125,0.211181640625,-1.1145038167938932,0.0,-1.1526717557251909
1749800351.955909,0.05029296875,-0.995849609375,0.216064453125,-1.5725190839694656,0.09923664122137404,-1.0763358778625953
1749800351.9659078,0.053466796875,-0.99951171875,0.213134765625,-1.1984732824427482,-0.04580152671755725,-1.1450381679389312
1749800351.9759138,0.0498046875,-0.997314453125,0.212158203125,-1.2671755725190839,-0.03816793893129771,-1.1145038167938932
1749800351.985908,0.05810546875,-1.00732421875,0.21337890625,-1.2213740458015268,0.022900763358778626,-1.1297709923664123
1749800351.9959104,0.052734375,-0.99658203125,0.2119140625,-1.213740458015267,0.15267175572519084,-1.1374045801526718
1749800352.0059068,0.05419921875,-0.99951171875,0.20947265625,-1.3511450381679388,-0.04580152671755725,-1.1221374045801527
1749800352.0159128,0.049072265625,-1.0,0.21484375,-1.3969465648854962,-0.007633587786259542,-1.2213740458015268
1749800352.0259101,0.05078125,-0.998291015625,0.19970703125,-1.3282442748091603,0.15267175572519084,-1.0610687022900764
1749800352.035907,0.054931640625,-0.985107421875,0.214599609375,-1.1145038167938932,-1.8778625954198473,-0.9847328244274809
1749800352.0459113,0.052734375,-0.98583984375,0.21630859375,-1.2748091603053435,0.13740458015267176,-0.9618320610687023
1749800352.0559106,0.055419921875,-0.998779296875,0.210693359375,-1.3587786259541985,-0.022900763358778626,-1.16793893129771
1749800352.0659075,0.058349609375,-1.011962890625,0.211669921875,-1.3511450381679388,0.015267175572519083,-1.0687022900763359
1749800352.0759082,0.060302734375,-1.00146484375,0.199462890625,-1.297709923664122,0.03816793893129771,-0.8549618320610687
1749800352.0859096,0.055419921875,-0.996826171875,0.220458984375,-1.3053435114503817,-1.9083969465648856,-1.0458015267175573
1749800352.0959082,0.0517578125,-0.9951171875,0.205810546875,-1.0534351145038168,0.022900763358778626,-0.9312977099236641
1749800352.1059065,0.056396484375,-0.997802734375,0.208251953125,-1.1526717557251909,0.015267175572519083,-1.0381679389312977
1749800352.1159077,0.049072265625,-0.991455078125,0.211181640625,-1.3511450381679388,1.9465648854961832,-1.0916030534351144
1749800352.125908,0.057861328125,-0.9990234375,0.218017578125,-1.183206106870229,1.9465648854961832,-1.0534351145038168
1749800352.1359074,0.057861328125,-1.0,0.205810546875,-1.1984732824427482,0.10687022900763359,-1.1374045801526718
1749800352.1459079,0.051513671875,-0.996337890625,0.210693359375,-1.2061068702290076,0.12213740458015267,-1.1221374045801527
1749800352.1559067,0.05517578125,-1.000732421875,0.215087890625,-1.3129770992366412,0.07633587786259542,-1.0534351145038168
1749800352.1659062,0.05908203125,-0.9990234375,0.212646484375,-1.1221374045801527,-0.17557251908396945,-1.0
1749800352.1759079,0.053955078125,-1.001708984375,0.206787109375,-1.2290076335877862,0.05343511450381679,-1.0076335877862594
1749800352.1859076,0.053955078125,-1.00537109375,0.216796875,-1.251908396946565,-0.07633587786259542,-1.213740458015267
1749800352.1959136,0.04833984375,-1.01513671875,0.225830078125,-1.213740458015267,0.022900763358778626,-1.2213740458015268
1749800352.2059062,0.052978515625,-0.9853515625,0.210693359375,-1.16793893129771,1.9312977099236641,-1.0458015267175573
1749800352.215908,0.052734375,-1.01513671875,0.217041015625,-1.0763358778625953,1.9465648854961832,-0.9541984732824428
1749800352.2259066,0.0517578125,-1.0,0.20361328125,-1.282442748091603,0.1297709923664122,-1.1984732824427482
1749800352.235907,0.05810546875,-1.000732421875,0.21142578125,-1.2748091603053435,-0.061068702290076333,-1.083969465648855
1749800352.245907,0.05712890625,-0.997802734375,0.208984375,-1.2900763358778626,-0.03816793893129771,-1.0916030534351144
1749800352.255908,0.06005859375,-1.0009765625,0.2109375,-1.3053435114503817,-0.03816793893129771,-1.015267175572519
1749800352.2659104,0.052001953125,-1.000244140625,0.21484375,-1.1450381679389312,-0.04580152671755725,-1.0763358778625953
1749800352.2759113,0.055419921875,-0.99755859375,0.21826171875,-1.1984732824427482,0.13740458015267176,-1.083969465648855
1749800352.2859073,0.052978515625,-0.998779296875,0.208740234375,-1.282442748091603,-0.05343511450381679,-1.183206106870229
1749800352.2959037,0.052734375,-0.999267578125,0.208984375,-1.450381679389313,0.21374045801526717,-1.1221374045801527
1749800352.3059099,0.052490234375,-0.98779296875,0.213134765625,-1.3053435114503817,0.0916030534351145,-1.0916030534351144
1749800352.3159084,0.05224609375,-0.998291015625,0.208740234375,-1.3053435114503817,0.20610687022900764,-1.0229007633587786
1749800352.325907,0.052001953125,-0.995361328125,0.213623046875,-1.2900763358778626,-0.07633587786259542,-1.0229007633587786
1749800352.33591,0.0498046875,-1.002685546875,0.2138671875,-1.1755725190839694,-1.8854961832061068,-0.9236641221374046
1749800352.3459067,0.052490234375,-0.996826171875,0.211181640625,-1.1374045801526718,-0.015267175572519083,-0.9007633587786259
1749800352.3559086,0.05029296875,-0.9873046875,0.212646484375,-1.2366412213740459,-0.030534351145038167,-1.1755725190839694
1749800352.3659065,0.052734375,-1.001953125,0.208984375,-1.0534351145038168,0.0916030534351145,-0.9312977099236641
1749800352.3759077,0.073486328125,-0.984619140625,0.2080078125,-1.0916030534351144,0.030534351145038167,-1.3358778625954197
1749800352.3859081,0.058349609375,-0.998291015625,0.214599609375,-1.1068702290076335,-0.07633587786259542,-1.1221374045801527
1749800352.395908,0.0556640625,-1.001708984375,0.214599609375,-1.2748091603053435,-1.9465648854961832,-0.9923664122137404
1749800352.4059064,0.048828125,-1.007568359375,0.213623046875,-1.2442748091603053,0.0916030534351145,-0.9694656488549618
1749800352.4159083,0.0595703125,-0.99951171875,0.20166015625,-1.2366412213740459,1.9083969465648856,-1.0
1749800352.4259074,0.057373046875,-0.995849609375,0.208251953125,-1.282442748091603,0.13740458015267176,-0.916030534351145
1749800352.4359076,0.054443359375,-0.99658203125,0.21240234375,-1.2748091603053435,-0.09923664122137404,-0.9007633587786259
1749800352.4459069,0.05419921875,-0.9853515625,0.20458984375,-1.3358778625954197,0.20610687022900764,-0.9083969465648855
1749800352.455908,0.0546875,-0.99951171875,0.218017578125,-1.2748091603053435,0.12213740458015267,-1.183206106870229
1749800352.4659061,0.046630859375,-1.005126953125,0.21630859375,-1.099236641221374,-1.9389312977099236,-1.213740458015267
1749800352.4759085,0.049072265625,-0.998291015625,0.2138671875,-1.1374045801526718,-0.03816793893129771,-1.099236641221374
1749800352.4859064,0.058349609375,-0.997314453125,0.212890625,-1.6106870229007633,-0.1297709923664122,-1.1374045801526718
1749800352.4959135,0.054931640625,-0.998291015625,0.21533203125,-1.213740458015267,-0.0916030534351145,-1.0687022900763359
1749800352.5059083,0.051025390625,-0.9912109375,0.2109375,-1.1221374045801527,1.9083969465648856,-1.0687022900763359
1749800352.515909,0.054931640625,-0.996337890625,0.21337890625,-1.3282442748091603,-1.9312977099236641,-0.9847328244274809
1749800352.5259082,0.054931640625,-0.999267578125,0.2109375,-1.213740458015267,0.22137404580152673,-1.083969465648855
1749800352.5359085,0.052490234375,-1.0048828125,0.203857421875,-1.1374045801526718,0.09923664122137404,-0.9083969465648855
1749800352.5459073,0.05126953125,-1.001953125,0.21337890625,-1.282442748091603,0.12213740458015267,-1.0534351145038168
1749800352.5559125,0.053466796875,-0.998046875,0.219970703125,-1.2366412213740459,1.9312977099236641,-1.0229007633587786
1749800352.5659242,0.0498046875,-1.002197265625,0.20703125,-1.1221374045801527,0.0916030534351145,-0.9389312977099237
1749800352.5759099,0.053466796875,-0.986328125,0.2099609375,-1.1984732824427482,0.12213740458015267,-1.0458015267175573
1749800352.585914,0.056396484375,-0.9970703125,0.211669921875,-1.0610687022900764,0.11450381679389313,-0.9465648854961832
1749800352.5959506,0.05419921875,-1.00341796875,0.213134765625,-1.3587786259541985,0.08396946564885496,-1.1984732824427482
1749800352.6059084,0.05126953125,-0.998046875,0.218505859375,-1.2442748091603053,0.007633587786259542,-1.1374045801526718
1749800352.6159203,0.052490234375,-1.002197265625,0.211181640625,-1.2290076335877862,0.2366412213740458,-1.0458015267175573
1749800352.6259089,0.054931640625,-1.00927734375,0.212158203125,-1.3282442748091603,-0.03816793893129771,-1.0763358778625953
1749800352.635917,0.054443359375,-0.99560546875,0.211181640625,-1.0229007633587786,-0.07633587786259542,-1.0610687022900764
1749800352.645909,0.0615234375,-0.99951171875,0.21435546875,-1.183206106870229,-0.03816793893129771,-0.9694656488549618
1749800352.655908,0.064453125,-0.996337890625,0.218017578125,-1.465648854961832,-1.9236641221374047,-1.0610687022900764
1749800352.6659067,0.0517578125,-1.004638671875,0.212646484375,-1.0763358778625953,-0.10687022900763359,-1.0305343511450382
1749800352.6759076,0.056396484375,-0.9951171875,0.214599609375,-1.3969465648854962,-0.1297709923664122,-1.1603053435114503
1749800352.6859086,0.047119140625,-1.001953125,0.218017578125,-1.1908396946564885,1.9312977099236641,-1.0687022900763359
1749800352.6959054,0.05419921875,-1.01513671875,0.206787109375,-1.2213740458015268,-1.9312977099236641,-0.9541984732824428
1749800352.7059069,0.048583984375,-1.002197265625,0.215087890625,-1.282442748091603,-0.0916030534351145,-1.0076335877862594
1749800352.7159078,0.051025390625,-1.001953125,0.20556640625,-1.2213740458015268,-0.19083969465648856,-1.0916030534351144
1749800352.725911,0.05908203125,-0.998046875,0.21044921875,-1.2366412213740459,-0.015267175572519083,-0.9694656488549618
1749800352.7359087,0.051513671875,-0.999755859375,0.212646484375,-1.183206106870229,0.061068702290076333,-1.1068702290076335
1749800352.7459075,0.0537109375,-0.998046875,0.210205078125,-1.1984732824427482,0.06870229007633588,-1.2061068702290076
1749800352.755905,0.05126953125,-1.000244140625,0.209716796875,-1.3129770992366412,0.1297709923664122,-0.9694656488549618
1749800352.7659073,0.057373046875,-1.013427734375,0.215576171875,-1.1755725190839694,0.022900763358778626,-1.1145038167938932
1749800352.7759123,0.05712890625,-1.002197265625,0.210693359375,-1.3282442748091603,-1.9312977099236641,-1.1068702290076335
1749800352.7859066,0.052001953125,-0.996337890625,0.204833984375,-1.282442748091603,-0.06870229007633588,-0.9007633587786259
1749800352.7959077,0.053955078125,-0.998291015625,0.2158203125,-1.1603053435114503,-0.25190839694656486,-0.8931297709923665
1749800352.8059065,0.05224609375,-1.000244140625,0.20458984375,-1.381679389312977,0.1297709923664122,-1.2213740458015268
1749800352.8159072,0.058349609375,-0.99462890625,0.217041015625,-1.1374045801526718,0.04580152671755725,-0.9465648854961832
1749800352.8259063,0.056396484375,-0.99853515625,0.212158203125,-1.2061068702290076,0.10687022900763359,-0.9847328244274809
1749800352.835908,0.05419921875,-1.00390625,0.21728515625,-1.16793893129771,0.030534351145038167,-1.0534351145038168
1749800352.845908,0.05224609375,-0.996826171875,0.2236328125,-1.3511450381679388,1.9389312977099236,-1.0534351145038168
1749800352.855908,0.061279296875,-1.001220703125,0.21240234375,-1.4045801526717556,-0.022900763358778626,-1.0229007633587786
1749800352.8659108,0.054931640625,-1.01513671875,0.20849609375,-1.2213740458015268,1.9465648854961832,-0.9465648854961832
1749800352.8759081,0.055419921875,-0.999755859375,0.205322265625,-1.3282442748091603,1.8854961832061068,-1.1908396946564885
1749800352.8859067,0.04833984375,-0.995361328125,0.210693359375,-1.1068702290076335,0.183206106870229,-1.015267175572519
1749800352.8959079,0.052001953125,-0.99462890625,0.21240234375,-1.2290076335877862,0.11450381679389313,-1.083969465648855
1749800352.9059072,0.060546875,-0.997314453125,0.2197265625,-1.4122137404580153,0.04580152671755725,-0.8931297709923665
1749800352.915905,0.0478515625,-0.99755859375,0.21630859375,-1.3129770992366412,0.15267175572519084,-1.2061068702290076
1749800352.9259071,0.05517578125,-0.996337890625,0.20654296875,-1.1068702290076335,-1.9465648854961832,-1.1526717557251909
1749800352.9359083,0.04736328125,-0.992431640625,0.211669921875,-1.3358778625954197,0.1450381679389313,-1.2290076335877862
1749800352.9459124,0.0576171875,-1.00146484375,0.2138671875,-1.366412213740458,1.9389312977099236,-1.1068702290076335
1749800352.955908,0.049072265625,-1.0009765625,0.218994140625,-1.2671755725190839,0.19083969465648856,-1.1221374045801527
1749800352.965907,0.052978515625,-0.999267578125,0.218505859375,-1.4198473282442747,0.0916030534351145,-1.0381679389312977
1749800352.975912,0.05224609375,-1.000244140625,0.210693359375,-1.1908396946564885,0.07633587786259542,-1.099236641221374
1749800352.9859078,0.0615234375,-0.99755859375,0.216552734375,-1.1526717557251909,-1.9236641221374047,-1.0458015267175573
1749800352.9959083,0.052734375,-0.99853515625,0.21337890625,-1.1984732824427482,0.0916030534351145,-1.1526717557251909
1749800353.0059073,0.055908203125,-1.01220703125,0.21435546875,-1.2366412213740459,-0.030534351145038167,-0.9389312977099237
1749800353.0159087,0.062255859375,-0.99658203125,0.204833984375,-1.297709923664122,0.007633587786259542,-0.8702290076335878
1749800353.025907,0.05224609375,-1.00244140625,0.211181640625,-1.1221374045801527,0.05343511450381679,-1.1984732824427482
1749800353.0359282,0.05029296875,-0.99365234375,0.2109375,-1.213740458015267,-0.007633587786259542,-1.0305343511450382
1749800353.045905,0.0537109375,-1.00341796875,0.217041015625,-1.381679389312977,0.12213740458015267,-0.9312977099236641
1749800353.0559072,0.056396484375,-1.00146484375,0.209716796875,-1.251908396946565,0.10687022900763359,-0.9389312977099237
1749800353.0659132,0.049072265625,-0.998779296875,0.2080078125,-1.1984732824427482,0.007633587786259542,-1.1450381679389312
1749800353.0759063,0.05224609375,-0.996337890625,0.210693359375,-1.2671755725190839,0.08396946564885496,-1.0381679389312977
1749800353.0859048,0.053955078125,-1.000732421875,0.219970703125,-1.213740458015267,0.13740458015267176,-1.099236641221374
1749800353.0959017,0.050537109375,-1.002197265625,0.20556640625,-1.0381679389312977,0.030534351145038167,-1.1145038167938932
1749800353.1059043,0.05615234375,-0.99951171875,0.209716796875,-1.297709923664122,-0.08396946564885496,-1.0381679389312977
1749800353.115905,0.056396484375,-0.992431640625,0.21240234375,-1.0763358778625953,0.007633587786259542,-0.9847328244274809
1749800353.1259046,0.059814453125,-0.995849609375,0.215576171875,-1.2748091603053435,0.11450381679389313,-1.1297709923664123
1749800353.1359062,0.052001953125,-0.998046875,0.2001953125,-1.2595419847328244,-0.04580152671755725,-1.1374045801526718
1749800353.1459055,0.05224609375,-1.0029296875,0.223876953125,-1.3511450381679388,-0.061068702290076333,-0.9541984732824428
1749800353.155905,0.05419921875,-0.9970703125,0.2119140625,-1.1984732824427482,-0.030534351145038167,-0.9770992366412213
1749800353.165904,0.05322265625,-0.997802734375,0.216796875,-1.2366412213740459,0.0916030534351145,-1.1374045801526718
1749800353.1759055,0.05224609375,-0.999267578125,0.215576171875,-1.3282442748091603,-0.05343511450381679,-1.099236641221374
1749800353.185905,0.054931640625,-0.996826171875,0.21435546875,-1.5267175572519085,-1.9083969465648856,-1.0916030534351144
1749800353.1959083,0.04541015625,-1.00439453125,0.2119140625,-1.2748091603053435,-0.007633587786259542,-1.1526717557251909
1749800353.2059033,0.051025390625,-1.00146484375,0.216064453125,-1.1984732824427482,-1.9389312977099236,-1.0076335877862594
1749800353.215905,0.050048828125,-0.992919921875,0.21630859375,-1.213740458015267,0.06870229007633588,-1.0
1749800353.225905,0.0615234375,-1.004150390625,0.215087890625,-1.0916030534351144,0.05343511450381679,-1.0381679389312977
1749800353.2359047,0.06201171875,-0.99267578125,0.210693359375,-1.183206106870229,0.04580152671755725,-0.9694656488549618
1749800353.2459047,0.05517578125,-0.997314453125,0.22705078125,-1.183206106870229,0.15267175572519084,-1.0687022900763359
1749800353.2559063,0.057373046875,-1.0,0.231689453125,-1.2366412213740459,0.03816793893129771,-1.0687022900763359
1749800353.2659047,0.0556640625,-1.005126953125,0.217041015625,-1.1374045801526718,-0.04580152671755725,-1.083969465648855
1749800353.275906,0.053466796875,-1.000732421875,0.214111328125,-1.3587786259541985,0.0,-1.0
1749800353.2859042,0.0556640625,-0.993896484375,0.208251953125,-1.1526717557251909,-1.9389312977099236,-1.1068702290076335
1749800353.295909,0.058349609375,-0.993896484375,0.216064453125,-1.2061068702290076,0.015267175572519083,-1.1450381679389312
1749800353.3059042,0.059326171875,-1.0029296875,0.21142578125,-1.0,-0.04580152671755725,-0.9770992366412213
1749800353.315905,0.0537109375,-0.997314453125,0.218994140625,-1.5190839694656488,0.11450381679389313,-1.0229007633587786
1749800353.3259075,0.046875,-0.985595703125,0.203125,-1.3053435114503817,-0.030534351145038167,-1.015267175572519
1749800353.335906,0.0576171875,-1.011474609375,0.204833984375,-1.099236641221374,-0.06870229007633588,-1.1297709923664123
1749800353.3459034,0.05517578125,-1.013671875,0.217529296875,-1.2442748091603053,0.0916030534351145,-1.0229007633587786
1749800353.3558807,0.05322265625,-0.996826171875,0.210205078125,-1.213740458015267,-0.007633587786259542,-1.099236641221374
1749800353.3659055,0.05322265625,-0.997802734375,0.2197265625,-1.1755725190839694,-0.21374045801526717,-0.9847328244274809
1749800353.3759007,0.058837890625,-0.99951171875,0.21240234375,-1.183206106870229,-0.03816793893129771,-1.0916030534351144
1749800353.3858738,0.055908203125,-1.00244140625,0.20947265625,-1.2900763358778626,0.19083969465648856,-1.0763358778625953
1749800353.3959055,0.051025390625,-0.99853515625,0.211669921875,-1.3587786259541985,0.1297709923664122,-1.1221374045801527
1749800353.4059043,0.0556640625,-0.98583984375,0.207275390625,-1.2442748091603053,0.1984732824427481,-1.0
